#X		#Y		#Wave		#Intensity
-10.722373	21.898673	1808.186523	626671.312500
-10.722373	21.898673	1807.220703	626009.250000
-10.722373	21.898673	1806.254883	628070.812500
-10.722373	21.898673	1805.288086	627891.500000
-10.722373	21.898673	1804.321289	626964.062500
-10.722373	21.898673	1803.354492	629767.000000
-10.722373	21.898673	1802.387695	627959.375000
-10.722373	21.898673	1801.419922	628919.562500
-10.722373	21.898673	1800.453125	630169.125000
-10.722373	21.898673	1799.485352	629745.437500
-10.722373	21.898673	1798.517578	630763.000000
-10.722373	21.898673	1797.548828	631645.437500
-10.722373	21.898673	1796.581055	631422.375000
-10.722373	21.898673	1795.612305	633995.937500
-10.722373	21.898673	1794.643555	632291.812500
-10.722373	21.898673	1793.674805	632804.937500
-10.722373	21.898673	1792.706055	634769.875000
-10.722373	21.898673	1791.736328	635431.937500
-10.722373	21.898673	1790.766602	635104.125000
-10.722373	21.898673	1789.796875	634867.750000
-10.722373	21.898673	1788.827148	635303.562500
-10.722373	21.898673	1787.857422	636185.500000
-10.722373	21.898673	1786.886719	639516.187500
-10.722373	21.898673	1785.916992	638761.875000
-10.722373	21.898673	1784.946289	640336.812500
-10.722373	21.898673	1783.974609	638635.000000
-10.722373	21.898673	1783.003906	639107.312500
-10.722373	21.898673	1782.032227	640802.687500
-10.722373	21.898673	1781.061523	641061.625000
-10.722373	21.898673	1780.089844	641300.187500
-10.722373	21.898673	1779.117188	644646.812500
-10.722373	21.898673	1778.145508	646331.937500
-10.722373	21.898673	1777.172852	646235.125000
-10.722373	21.898673	1776.200195	646176.375000
-10.722373	21.898673	1775.227539	646155.500000
-10.722373	21.898673	1774.254883	649874.187500
-10.722373	21.898673	1773.282227	648924.750000
-10.722373	21.898673	1772.308594	648503.875000
-10.722373	21.898673	1771.334961	647977.062500
-10.722373	21.898673	1770.361328	653127.125000
-10.722373	21.898673	1769.387695	654276.625000
-10.722373	21.898673	1768.413086	652387.687500
-10.722373	21.898673	1767.438477	652276.937500
-10.722373	21.898673	1766.463867	655016.125000
-10.722373	21.898673	1765.489258	656237.312500
-10.722373	21.898673	1764.514648	656428.562500
-10.722373	21.898673	1763.539062	658592.375000
-10.722373	21.898673	1762.564453	660518.250000
-10.722373	21.898673	1761.588867	658151.437500
-10.722373	21.898673	1760.612305	659597.437500
-10.722373	21.898673	1759.636719	662542.625000
-10.722373	21.898673	1758.660156	662714.437500
-10.722373	21.898673	1757.684570	660994.062500
-10.722373	21.898673	1756.708008	664959.687500
-10.722373	21.898673	1755.730469	667269.000000
-10.722373	21.898673	1754.753906	666170.500000
-10.722373	21.898673	1753.776367	669221.187500
-10.722373	21.898673	1752.798828	668349.250000
-10.722373	21.898673	1751.821289	668383.500000
-10.722373	21.898673	1750.843750	668470.562500
-10.722373	21.898673	1749.866211	672982.000000
-10.722373	21.898673	1748.887695	672549.937500
-10.722373	21.898673	1747.909180	673453.125000
-10.722373	21.898673	1746.930664	676811.812500
-10.722373	21.898673	1745.952148	675361.250000
-10.722373	21.898673	1744.972656	678039.625000
-10.722373	21.898673	1743.993164	677232.500000
-10.722373	21.898673	1743.013672	676897.875000
-10.722373	21.898673	1742.034180	679890.562500
-10.722373	21.898673	1741.054688	680913.687500
-10.722373	21.898673	1740.074219	682009.062500
-10.722373	21.898673	1739.094727	684316.125000
-10.722373	21.898673	1738.114258	684351.500000
-10.722373	21.898673	1737.132812	687768.312500
-10.722373	21.898673	1736.152344	686942.687500
-10.722373	21.898673	1735.170898	686726.625000
-10.722373	21.898673	1734.190430	688982.500000
-10.722373	21.898673	1733.208008	690237.312500
-10.722373	21.898673	1732.226562	690093.312500
-10.722373	21.898673	1731.245117	691156.875000
-10.722373	21.898673	1730.262695	693885.687500
-10.722373	21.898673	1729.280273	694677.500000
-10.722373	21.898673	1728.297852	698010.312500
-10.722373	21.898673	1727.315430	697739.437500
-10.722373	21.898673	1726.332031	697961.750000
-10.722373	21.898673	1725.349609	698874.500000
-10.722373	21.898673	1724.366211	698808.625000
-10.722373	21.898673	1723.382812	701211.500000
-10.722373	21.898673	1722.398438	701955.312500
-10.722373	21.898673	1721.415039	706209.062500
-10.722373	21.898673	1720.430664	705271.687500
-10.722373	21.898673	1719.446289	707608.562500
-10.722373	21.898673	1718.461914	707578.250000
-10.722373	21.898673	1717.476562	710653.000000
-10.722373	21.898673	1716.492188	710105.000000
-10.722373	21.898673	1715.506836	711190.187500
-10.722373	21.898673	1714.521484	713196.125000
-10.722373	21.898673	1713.536133	714197.812500
-10.722373	21.898673	1712.549805	713826.562500
-10.722373	21.898673	1711.564453	718195.750000
-10.722373	21.898673	1710.578125	718370.000000
-10.722373	21.898673	1709.591797	719766.125000
-10.722373	21.898673	1708.604492	721181.562500
-10.722373	21.898673	1707.618164	723962.437500
-10.722373	21.898673	1706.630859	725867.375000
-10.722373	21.898673	1705.643555	727280.500000
-10.722373	21.898673	1704.656250	727529.625000
-10.722373	21.898673	1703.668945	730503.500000
-10.722373	21.898673	1702.680664	729885.125000
-10.722373	21.898673	1701.692383	731898.625000
-10.722373	21.898673	1700.704102	736089.312500
-10.722373	21.898673	1699.715820	733543.812500
-10.722373	21.898673	1698.727539	736448.375000
-10.722373	21.898673	1697.738281	739020.875000
-10.722373	21.898673	1696.749023	738776.812500
-10.722373	21.898673	1695.759766	743366.750000
-10.722373	21.898673	1694.770508	743464.875000
-10.722373	21.898673	1693.780273	745506.625000
-10.722373	21.898673	1692.791016	748583.687500
-10.722373	21.898673	1691.800781	751885.562500
-10.722373	21.898673	1690.810547	749460.375000
-10.722373	21.898673	1689.819336	754171.250000
-10.722373	21.898673	1688.829102	756747.187500
-10.722373	21.898673	1687.837891	755300.437500
-10.722373	21.898673	1686.846680	759436.125000
-10.722373	21.898673	1685.855469	760215.187500
-10.722373	21.898673	1684.864258	762378.187500
-10.722373	21.898673	1683.872070	763044.562500
-10.722373	21.898673	1682.879883	764266.125000
-10.722373	21.898673	1681.887695	767093.750000
-10.722373	21.898673	1680.895508	768765.000000
-10.722373	21.898673	1679.903320	768425.625000
-10.722373	21.898673	1678.910156	770417.875000
-10.722373	21.898673	1677.916992	772936.937500
-10.722373	21.898673	1676.923828	774781.250000
-10.722373	21.898673	1675.930664	777479.000000
-10.722373	21.898673	1674.936523	780108.750000
-10.722373	21.898673	1673.942383	781472.500000
-10.722373	21.898673	1672.949219	782927.187500
-10.722373	21.898673	1671.954102	783413.875000
-10.722373	21.898673	1670.959961	781419.250000
-10.722373	21.898673	1669.964844	787742.437500
-10.722373	21.898673	1668.970703	789028.750000
-10.722373	21.898673	1667.975586	789820.125000
-10.722373	21.898673	1666.979492	789748.437500
-10.722373	21.898673	1665.984375	792222.000000
-10.722373	21.898673	1664.988281	795519.562500
-10.722373	21.898673	1663.993164	797057.062500
-10.722373	21.898673	1662.996094	794013.000000
-10.722373	21.898673	1662.000000	798638.750000
-10.722373	21.898673	1661.003906	797288.875000
-10.722373	21.898673	1660.006836	802363.500000
-10.722373	21.898673	1659.009766	804546.625000
-10.722373	21.898673	1658.012695	802485.750000
-10.722373	21.898673	1657.015625	806692.750000
-10.722373	21.898673	1656.017578	806922.937500
-10.722373	21.898673	1655.019531	805434.625000
-10.722373	21.898673	1654.021484	809704.750000
-10.722373	21.898673	1653.023438	812565.875000
-10.722373	21.898673	1652.025391	813863.750000
-10.722373	21.898673	1651.026367	814227.437500
-10.722373	21.898673	1650.027344	814805.125000
-10.722373	21.898673	1649.028320	818765.687500
-10.722373	21.898673	1648.029297	818123.562500
-10.722373	21.898673	1647.029297	817326.625000
-10.722373	21.898673	1646.029297	821692.437500
-10.722373	21.898673	1645.030273	817832.062500
-10.722373	21.898673	1644.029297	821187.375000
-10.722373	21.898673	1643.029297	823528.062500
-10.722373	21.898673	1642.028320	826236.500000
-10.722373	21.898673	1641.028320	827414.875000
-10.722373	21.898673	1640.027344	826813.312500
-10.722373	21.898673	1639.025391	829995.875000
-10.722373	21.898673	1638.024414	828190.250000
-10.722373	21.898673	1637.022461	832542.625000
-10.722373	21.898673	1636.020508	833511.812500
-10.722373	21.898673	1635.018555	836096.000000
-10.722373	21.898673	1634.016602	837363.375000
-10.722373	21.898673	1633.014648	838497.687500
-10.722373	21.898673	1632.011719	839523.500000
-10.722373	21.898673	1631.008789	839489.125000
-10.722373	21.898673	1630.005859	842157.312500
-10.722373	21.898673	1629.001953	839979.312500
-10.722373	21.898673	1627.999023	844467.562500
-10.722373	21.898673	1626.995117	844870.687500
-10.722373	21.898673	1625.991211	848647.687500
-10.722373	21.898673	1624.987305	849397.500000
-10.722373	21.898673	1623.982422	849573.812500
-10.722373	21.898673	1622.977539	852695.937500
-10.722373	21.898673	1621.973633	853840.875000
-10.722373	21.898673	1620.967773	854498.187500
-10.722373	21.898673	1619.962891	859246.937500
-10.722373	21.898673	1618.958008	861534.687500
-10.722373	21.898673	1617.952148	862542.000000
-10.722373	21.898673	1616.946289	864754.625000
-10.722373	21.898673	1615.940430	868521.375000
-10.722373	21.898673	1614.933594	868717.250000
-10.722373	21.898673	1613.927734	871247.125000
-10.722373	21.898673	1612.920898	874091.125000
-10.722373	21.898673	1611.914062	871730.000000
-10.722373	21.898673	1610.906250	874003.437500
-10.722373	21.898673	1609.899414	874192.750000
-10.722373	21.898673	1608.891602	876584.187500
-10.722373	21.898673	1607.883789	883410.062500
-10.722373	21.898673	1606.875977	878096.062500
-10.722373	21.898673	1605.868164	879738.375000
-10.722373	21.898673	1604.859375	882533.812500
-10.722373	21.898673	1603.850586	884132.875000
-10.722373	21.898673	1602.841797	883746.250000
-10.722373	21.898673	1601.833008	884795.750000
-10.722373	21.898673	1600.824219	884643.062500
-10.722373	21.898673	1599.814453	887292.875000
-10.722373	21.898673	1598.804688	890114.437500
-10.722373	21.898673	1597.794922	893387.875000
-10.722373	21.898673	1596.784180	893130.937500
-10.722373	21.898673	1595.774414	895851.937500
-10.722373	21.898673	1594.763672	893702.937500
-10.722373	21.898673	1593.752930	897520.250000
-10.722373	21.898673	1592.742188	894135.500000
-10.722373	21.898673	1591.730469	895795.437500
-10.722373	21.898673	1590.719727	898877.500000
-10.722373	21.898673	1589.708008	900435.937500
-10.722373	21.898673	1588.696289	900661.250000
-10.722373	21.898673	1587.684570	905276.375000
-10.722373	21.898673	1586.671875	906550.312500
-10.722373	21.898673	1585.659180	905321.000000
-10.722373	21.898673	1584.646484	909548.250000
-10.722373	21.898673	1583.633789	909700.625000
-10.722373	21.898673	1582.621094	910406.500000
-10.722373	21.898673	1581.607422	909089.750000
-10.722373	21.898673	1580.593750	914334.187500
-10.722373	21.898673	1579.580078	914987.437500
-10.722373	21.898673	1578.566406	915252.250000
-10.722373	21.898673	1577.551758	916336.687500
-10.722373	21.898673	1576.538086	919460.125000
-10.722373	21.898673	1575.523438	921340.812500
-10.722373	21.898673	1574.508789	924168.375000
-10.722373	21.898673	1573.493164	925312.750000
-10.722373	21.898673	1572.478516	926626.187500
-10.722373	21.898673	1571.462891	930223.500000
-10.722373	21.898673	1570.447266	931871.875000
-10.722373	21.898673	1569.430664	932299.000000
-10.722373	21.898673	1568.415039	934771.687500
-10.722373	21.898673	1567.398438	938015.312500
-10.722373	21.898673	1566.381836	937947.000000
-10.722373	21.898673	1565.365234	942124.812500
-10.722373	21.898673	1564.348633	941008.125000
-10.722373	21.898673	1563.331055	943565.437500
-10.722373	21.898673	1562.313477	946716.375000
-10.722373	21.898673	1561.295898	948608.875000
-10.722373	21.898673	1560.278320	950843.687500
-10.722373	21.898673	1559.260742	956334.750000
-10.722373	21.898673	1558.242188	960523.750000
-10.722373	21.898673	1557.223633	963435.500000
-10.722373	21.898673	1556.205078	965520.062500
-10.722373	21.898673	1555.185547	967990.000000
-10.722373	21.898673	1554.166992	974011.937500
-10.722373	21.898673	1553.147461	975817.625000
-10.722373	21.898673	1552.127930	975033.500000
-10.722373	21.898673	1551.108398	978485.625000
-10.722373	21.898673	1550.087891	977988.125000
-10.722373	21.898673	1549.068359	978669.812500
-10.722373	21.898673	1548.047852	980375.812500
-10.722373	21.898673	1547.027344	980603.437500
-10.722373	21.898673	1546.005859	979177.875000
-10.722373	21.898673	1544.985352	980916.125000
-10.722373	21.898673	1543.963867	985869.125000
-10.722373	21.898673	1542.942383	989035.562500
-10.722373	21.898673	1541.920898	989621.875000
-10.722373	21.898673	1540.898438	995137.750000
-10.722373	21.898673	1539.875977	998201.250000
-10.722373	21.898673	1538.853516	1006520.750000
-10.722373	21.898673	1537.831055	1010470.437500
-10.722373	21.898673	1536.808594	1016049.000000
-10.722373	21.898673	1535.785156	1020535.875000
-10.722373	21.898673	1534.762695	1026689.125000
-10.722373	21.898673	1533.738281	1030005.875000
-10.722373	21.898673	1532.714844	1035481.500000
-10.722373	21.898673	1531.691406	1042984.875000
-10.722373	21.898673	1530.666992	1050537.750000
-10.722373	21.898673	1529.642578	1052563.875000
-10.722373	21.898673	1528.618164	1061936.125000
-10.722373	21.898673	1527.593750	1062883.375000
-10.722373	21.898673	1526.568359	1064223.625000
-10.722373	21.898673	1525.542969	1066669.500000
-10.722373	21.898673	1524.517578	1067446.875000
-10.722373	21.898673	1523.492188	1070142.625000
-10.722373	21.898673	1522.465820	1063461.250000
-10.722373	21.898673	1521.440430	1061378.375000
-10.722373	21.898673	1520.414062	1057875.125000
-10.722373	21.898673	1519.386719	1054116.750000
-10.722373	21.898673	1518.360352	1046785.187500
-10.722373	21.898673	1517.333008	1045541.000000
-10.722373	21.898673	1516.306641	1039864.375000
-10.722373	21.898673	1515.278320	1039694.687500
-10.722373	21.898673	1514.250977	1036760.062500
-10.722373	21.898673	1513.223633	1030890.062500
-10.722373	21.898673	1512.195312	1031143.250000
-10.722373	21.898673	1511.166992	1028683.437500
-10.722373	21.898673	1510.138672	1027740.937500
-10.722373	21.898673	1509.109375	1030340.250000
-10.722373	21.898673	1508.081055	1029182.500000
-10.722373	21.898673	1507.051758	1024597.500000
-10.722373	21.898673	1506.022461	1029578.125000
-10.722373	21.898673	1504.992188	1030640.625000
-10.722373	21.898673	1503.962891	1027940.312500
-10.722373	21.898673	1502.932617	1026081.750000
-10.722373	21.898673	1501.902344	1032003.000000
-10.722373	21.898673	1500.872070	1033538.750000
-10.722373	21.898673	1499.840820	1032830.250000
-10.722373	21.898673	1498.810547	1030227.375000
-10.722373	21.898673	1497.779297	1037719.250000
-10.722373	21.898673	1496.748047	1040714.187500
-10.722373	21.898673	1495.715820	1042622.812500
-10.722373	21.898673	1494.684570	1041173.625000
-10.722373	21.898673	1493.652344	1046470.562500
-10.722373	21.898673	1492.620117	1050311.500000
-10.722373	21.898673	1491.586914	1055792.250000
-10.722373	21.898673	1490.554688	1055949.125000
-10.722373	21.898673	1489.521484	1054352.875000
-10.722373	21.898673	1488.488281	1058457.500000
-10.722373	21.898673	1487.455078	1059051.375000
-10.722373	21.898673	1486.421875	1057460.125000
-10.722373	21.898673	1485.387695	1059702.750000
-10.722373	21.898673	1484.353516	1061375.750000
-10.722373	21.898673	1483.319336	1061007.250000
-10.722373	21.898673	1482.285156	1062032.250000
-10.722373	21.898673	1481.250000	1065895.500000
-10.722373	21.898673	1480.214844	1070814.625000
-10.722373	21.898673	1479.179688	1069688.375000
-10.722373	21.898673	1478.144531	1071660.625000
-10.722373	21.898673	1477.109375	1071389.625000
-10.722373	21.898673	1476.073242	1076419.375000
-10.722373	21.898673	1475.037109	1076047.500000
-10.722373	21.898673	1474.000977	1077833.625000
-10.722373	21.898673	1472.964844	1078531.750000
-10.722373	21.898673	1471.927734	1082444.875000
-10.722373	21.898673	1470.890625	1083860.375000
-10.722373	21.898673	1469.853516	1087042.250000
-10.722373	21.898673	1468.816406	1087332.000000
-10.722373	21.898673	1467.778320	1088712.125000
-10.722373	21.898673	1466.741211	1094531.125000
-10.722373	21.898673	1465.703125	1093264.250000
-10.722373	21.898673	1464.664062	1098338.000000
-10.722373	21.898673	1463.625977	1102523.500000
-10.722373	21.898673	1462.586914	1104000.125000
-10.722373	21.898673	1461.547852	1102812.375000
-10.722373	21.898673	1460.508789	1108040.375000
-10.722373	21.898673	1459.469727	1110970.125000
-10.722373	21.898673	1458.429688	1115401.125000
-10.722373	21.898673	1457.389648	1119439.750000
-10.722373	21.898673	1456.349609	1123549.875000
-10.722373	21.898673	1455.309570	1124711.750000
-10.722373	21.898673	1454.269531	1129284.500000
-10.722373	21.898673	1453.228516	1132101.375000
-10.722373	21.898673	1452.187500	1140063.875000
-10.722373	21.898673	1451.146484	1143387.250000
-10.722373	21.898673	1450.104492	1146213.125000
-10.722373	21.898673	1449.063477	1153607.375000
-10.722373	21.898673	1448.021484	1155910.125000
-10.722373	21.898673	1446.979492	1156845.000000
-10.722373	21.898673	1445.936523	1163738.625000
-10.722373	21.898673	1444.894531	1168982.125000
-10.722373	21.898673	1443.851562	1170019.375000
-10.722373	21.898673	1442.808594	1176471.375000
-10.722373	21.898673	1441.765625	1175502.000000
-10.722373	21.898673	1440.721680	1184976.875000
-10.722373	21.898673	1439.677734	1186872.125000
-10.722373	21.898673	1438.633789	1186610.125000
-10.722373	21.898673	1437.589844	1187161.000000
-10.722373	21.898673	1436.545898	1192950.250000
-10.722373	21.898673	1435.500977	1197109.375000
-10.722373	21.898673	1434.456055	1199670.375000
-10.722373	21.898673	1433.411133	1202140.750000
-10.722373	21.898673	1432.366211	1201348.000000
-10.722373	21.898673	1431.320312	1204336.750000
-10.722373	21.898673	1430.274414	1212108.875000
-10.722373	21.898673	1429.228516	1214799.625000
-10.722373	21.898673	1428.182617	1214648.750000
-10.722373	21.898673	1427.135742	1220426.750000
-10.722373	21.898673	1426.089844	1220706.875000
-10.722373	21.898673	1425.042969	1224619.750000
-10.722373	21.898673	1423.995117	1225483.625000
-10.722373	21.898673	1422.948242	1226847.375000
-10.722373	21.898673	1421.900391	1234349.000000
-10.722373	21.898673	1420.852539	1236196.000000
-10.722373	21.898673	1419.804688	1239858.875000
-10.722373	21.898673	1418.756836	1243881.500000
-10.722373	21.898673	1417.708008	1247989.000000
-10.722373	21.898673	1416.659180	1251946.875000
-10.722373	21.898673	1415.610352	1254934.250000
-10.722373	21.898673	1414.561523	1255653.000000
-10.722373	21.898673	1413.511719	1256732.125000
-10.722373	21.898673	1412.461914	1260311.625000
-10.722373	21.898673	1411.412109	1263170.000000
-10.722373	21.898673	1410.362305	1267324.875000
-10.722373	21.898673	1409.312500	1272133.625000
-10.722373	21.898673	1408.261719	1271769.625000
-10.722373	21.898673	1407.210938	1274575.750000
-10.722373	21.898673	1406.160156	1277059.875000
-10.722373	21.898673	1405.108398	1281585.750000
-10.722373	21.898673	1404.057617	1283706.625000
-10.722373	21.898673	1403.005859	1285545.875000
-10.722373	21.898673	1401.954102	1290503.875000
-10.722373	21.898673	1400.901367	1290919.000000
-10.722373	21.898673	1399.849609	1300032.000000
-10.722373	21.898673	1398.796875	1301533.750000
-10.722373	21.898673	1397.744141	1305630.625000
-10.722373	21.898673	1396.690430	1311010.375000
-10.722373	21.898673	1395.637695	1311445.625000
-10.722373	21.898673	1394.583984	1313564.250000
-10.722373	21.898673	1393.530273	1318555.500000
-10.722373	21.898673	1392.476562	1321805.625000
-10.722373	21.898673	1391.421875	1319255.500000
-10.722373	21.898673	1390.368164	1322970.375000
-10.722373	21.898673	1389.313477	1328405.000000
-10.722373	21.898673	1388.257812	1330744.875000
-10.722373	21.898673	1387.203125	1332983.375000
-10.722373	21.898673	1386.147461	1330554.125000
-10.722373	21.898673	1385.091797	1333781.750000
-10.722373	21.898673	1384.036133	1335640.250000
-10.722373	21.898673	1382.980469	1335354.750000
-10.722373	21.898673	1381.923828	1331443.125000
-10.722373	21.898673	1380.867188	1340248.500000
-10.722373	21.898673	1379.810547	1339833.750000
-10.722373	21.898673	1378.753906	1344539.375000
-10.722373	21.898673	1377.696289	1344172.500000
-10.722373	21.898673	1376.638672	1344487.250000
-10.722373	21.898673	1375.581055	1345253.000000
-10.722373	21.898673	1374.523438	1343116.250000
-10.722373	21.898673	1373.465820	1345906.625000
-10.722373	21.898673	1372.407227	1341592.500000
-10.722373	21.898673	1371.348633	1342199.625000
-10.722373	21.898673	1370.290039	1343431.375000
-10.722373	21.898673	1369.230469	1341923.875000
-10.722373	21.898673	1368.170898	1343410.375000
-10.722373	21.898673	1367.111328	1341812.750000
-10.722373	21.898673	1366.051758	1341025.750000
-10.722373	21.898673	1364.992188	1344706.625000
-10.722373	21.898673	1363.931641	1340926.000000
-10.722373	21.898673	1362.871094	1342166.875000
-10.722373	21.898673	1361.810547	1342379.625000
-10.722373	21.898673	1360.750000	1338170.375000
-10.722373	21.898673	1359.688477	1340474.625000
-10.722373	21.898673	1358.626953	1338902.625000
-10.722373	21.898673	1357.565430	1340614.750000
-10.722373	21.898673	1356.503906	1339128.875000
-10.722373	21.898673	1355.441406	1334722.750000
-10.722373	21.898673	1354.378906	1332967.625000
-10.722373	21.898673	1353.316406	1331854.500000
-10.722373	21.898673	1352.253906	1324374.125000
-10.722373	21.898673	1351.191406	1319717.750000
-10.722373	21.898673	1350.127930	1316689.875000
-10.722373	21.898673	1349.064453	1308236.625000
-10.722373	21.898673	1348.000000	1307585.125000
-10.722373	21.898673	1346.936523	1304071.375000
-10.722373	21.898673	1345.872070	1303573.375000
-10.722373	21.898673	1344.807617	1296770.750000
-10.722373	21.898673	1343.743164	1292427.250000
-10.722373	21.898673	1342.678711	1284770.625000
-10.722373	21.898673	1341.613281	1282272.125000
-10.722373	21.898673	1340.547852	1276765.875000
-10.722373	21.898673	1339.482422	1274664.750000
-10.722373	21.898673	1338.416016	1264551.000000
-10.722373	21.898673	1337.350586	1265843.125000
-10.722373	21.898673	1336.284180	1261489.125000
-10.722373	21.898673	1335.217773	1256032.250000
-10.722373	21.898673	1334.150391	1247376.875000
-10.722373	21.898673	1333.083984	1246425.625000
-10.722373	21.898673	1332.016602	1240403.625000
-10.722373	21.898673	1330.949219	1242053.500000
-10.722373	21.898673	1329.880859	1240937.750000
-10.722373	21.898673	1328.813477	1241623.625000
-10.722373	21.898673	1327.745117	1234727.875000
-10.722373	21.898673	1326.676758	1228730.750000
-10.722373	21.898673	1325.607422	1220965.875000
-10.722373	21.898673	1324.539062	1209669.500000
-10.722373	21.898673	1323.469727	1199385.750000
-10.722373	21.898673	1322.400391	1182874.750000
-10.722373	21.898673	1321.331055	1169245.750000
-10.722373	21.898673	1320.260742	1159717.875000
-10.722373	21.898673	1319.190430	1151725.125000
-10.722373	21.898673	1318.120117	1140260.625000
-10.722373	21.898673	1317.049805	1132236.500000
-10.722373	21.898673	1315.978516	1127388.375000
-10.722373	21.898673	1314.908203	1121756.750000
-10.722373	21.898673	1313.836914	1115422.625000
-10.722373	21.898673	1312.764648	1107178.750000
-10.722373	21.898673	1311.693359	1103933.000000
-10.722373	21.898673	1310.621094	1097751.250000
-10.722373	21.898673	1309.548828	1092265.000000
-10.722373	21.898673	1308.476562	1081617.875000
-10.722373	21.898673	1307.404297	1076873.625000
-10.722373	21.898673	1306.331055	1070514.875000
-10.722373	21.898673	1305.257812	1067709.625000
-10.722373	21.898673	1304.184570	1060892.750000
-10.722373	21.898673	1303.110352	1054301.000000
-10.722373	21.898673	1302.037109	1048103.750000
-10.722373	21.898673	1300.962891	1038421.312500
-10.722373	21.898673	1299.887695	1033670.375000
-10.722373	21.898673	1298.813477	1028774.937500
-10.722373	21.898673	1297.738281	1021714.312500
-10.722373	21.898673	1296.663086	1014306.562500
-10.722373	21.898673	1295.587891	1014108.125000
-10.722373	21.898673	1294.512695	1011730.000000
-10.722373	21.898673	1293.436523	1009126.500000
-10.722373	21.898673	1292.360352	1002799.937500
-10.722373	21.898673	1291.284180	1002571.875000
-10.722373	21.898673	1290.208008	1002307.187500
-10.722373	21.898673	1289.130859	998403.187500
-10.722373	21.898673	1288.053711	993505.000000
-10.722373	21.898673	1286.976562	988835.000000
-10.722373	21.898673	1285.899414	983176.125000
-10.722373	21.898673	1284.821289	977339.375000
-10.722373	21.898673	1283.743164	975341.187500
-10.722373	21.898673	1282.665039	970446.312500
-10.722373	21.898673	1281.586914	962902.937500
-10.722373	21.898673	1280.507812	960947.812500
-10.722373	21.898673	1279.429688	956161.750000
-10.722373	21.898673	1278.349609	952177.812500
-10.722373	21.898673	1277.270508	945722.875000
-10.722373	21.898673	1276.190430	943346.937500
-10.722373	21.898673	1275.111328	940721.312500
-10.722373	21.898673	1274.031250	939067.062500
-10.722373	21.898673	1272.950195	940118.375000
-10.722373	21.898673	1271.870117	935598.750000
-10.722373	21.898673	1270.789062	935007.000000
-10.722373	21.898673	1269.708008	934693.062500
-10.722373	21.898673	1268.625977	933143.875000
-10.722373	21.898673	1267.544922	927924.437500
-10.722373	21.898673	1266.462891	928291.875000
-10.722373	21.898673	1265.380859	923364.437500
-10.722373	21.898673	1264.298828	924980.312500
-10.722373	21.898673	1263.215820	922421.125000
-10.722373	21.898673	1262.132812	919769.875000
-10.722373	21.898673	1261.049805	920147.375000
-10.722373	21.898673	1259.966797	916979.875000
-10.722373	21.898673	1258.882812	913623.000000
-10.722373	21.898673	1257.799805	912339.875000
-10.722373	21.898673	1256.715820	909110.187500
-10.722373	21.898673	1255.630859	905729.812500
-10.722373	21.898673	1254.546875	904294.812500
-10.722373	21.898673	1253.461914	902100.687500
-10.722373	21.898673	1252.376953	906101.562500
-10.722373	21.898673	1251.291016	905288.250000
-10.722373	21.898673	1250.206055	902743.875000
-10.722373	21.898673	1249.120117	902300.812500
-10.722373	21.898673	1248.034180	898389.812500
-10.722373	21.898673	1246.948242	894462.437500
-10.722373	21.898673	1245.861328	895748.875000
-10.722373	21.898673	1244.774414	895477.250000
-10.722373	21.898673	1243.687500	896201.437500
-10.722373	21.898673	1242.600586	895868.562500
-10.722373	21.898673	1241.513672	895814.000000
-10.722373	21.898673	1240.425781	897405.812500
-10.722373	21.898673	1239.337891	897068.125000
-10.722373	21.898673	1238.249023	897410.937500
-10.722373	21.898673	1237.161133	895601.812500
-10.722373	21.898673	1236.072266	894774.187500
-10.722373	21.898673	1234.983398	895566.562500
-10.722373	21.898673	1233.894531	896015.187500
-10.722373	21.898673	1232.804688	895289.312500
-10.722373	21.898673	1231.714844	897442.125000
-10.722373	21.898673	1230.625000	899047.687500
-10.722373	21.898673	1229.535156	903288.062500
-10.722373	21.898673	1228.444336	904742.500000
-10.722373	21.898673	1227.353516	901752.750000
-10.722373	21.898673	1226.262695	902866.125000
-10.722373	21.898673	1225.171875	900074.125000
-10.722373	21.898673	1224.080078	899600.437500
-10.722373	21.898673	1222.989258	893979.812500
-10.722373	21.898673	1221.897461	894269.062500
-10.722373	21.898673	1220.804688	894702.250000
-10.722373	21.898673	1219.712891	895457.125000
-10.722373	21.898673	1218.620117	889909.750000
-10.722373	21.898673	1217.527344	892828.437500
-10.722373	21.898673	1216.433594	888267.437500
-10.722373	21.898673	1215.340820	887308.312500
-10.722373	21.898673	1214.247070	886318.062500
-10.722373	21.898673	1213.153320	883427.812500
-10.722373	21.898673	1212.058594	883050.250000
-10.722373	21.898673	1210.964844	881285.875000
-10.722373	21.898673	1209.870117	882947.187500
-10.722373	21.898673	1208.775391	882003.562500
-10.722373	21.898673	1207.679688	877881.625000
-10.722373	21.898673	1206.584961	874513.812500
-10.722373	21.898673	1205.489258	873823.937500
-10.722373	21.898673	1204.393555	873789.812500
-10.722373	21.898673	1203.296875	869675.375000
-10.722373	21.898673	1202.201172	869410.875000
-10.722373	21.898673	1201.104492	866586.812500
-10.722373	21.898673	1200.007812	868940.375000
-10.722373	21.898673	1198.910156	870371.187500
-10.722373	21.898673	1197.813477	868940.687500
-10.722373	21.898673	1196.715820	872269.062500
-10.722373	21.898673	1195.618164	872485.625000
-10.722373	21.898673	1194.519531	874142.500000
-10.722373	21.898673	1193.420898	873587.937500
-10.722373	21.898673	1192.322266	873926.937500
-10.722373	21.898673	1191.223633	875356.000000
-10.722373	21.898673	1190.125000	876188.937500
-10.722373	21.898673	1189.025391	874752.375000
-10.722373	21.898673	1187.925781	877582.750000
-10.722373	21.898673	1186.826172	876595.875000
-10.722373	21.898673	1185.725586	876566.500000
-10.722373	21.898673	1184.625977	874871.500000
-10.722373	21.898673	1183.525391	872692.125000
-10.722373	21.898673	1182.423828	871849.937500
-10.722373	21.898673	1181.323242	869334.687500
-10.722373	21.898673	1180.221680	868176.375000
-10.722373	21.898673	1179.120117	863257.812500
-10.722373	21.898673	1178.018555	859029.125000
-10.722373	21.898673	1176.916016	858391.500000
-10.722373	21.898673	1175.814453	853975.937500
-10.722373	21.898673	1174.711914	853007.187500
-10.722373	21.898673	1173.608398	848242.312500
-10.722373	21.898673	1172.505859	847881.687500
-10.722373	21.898673	1171.402344	846027.375000
-10.722373	21.898673	1170.298828	845368.562500
-10.722373	21.898673	1169.194336	844197.437500
-10.722373	21.898673	1168.090820	841148.500000
-10.722373	21.898673	1166.986328	841308.500000
-10.722373	21.898673	1165.881836	843281.250000
-10.722373	21.898673	1164.777344	845945.437500
-10.722373	21.898673	1163.671875	849570.000000
-10.722373	21.898673	1162.566406	854991.000000
-10.722373	21.898673	1161.460938	860046.812500
-10.722373	21.898673	1160.354492	865832.062500
-10.722373	21.898673	1159.249023	869121.500000
-10.722373	21.898673	1158.142578	874610.625000
-10.722373	21.898673	1157.036133	875560.062500
-10.722373	21.898673	1155.928711	871566.125000
-10.722373	21.898673	1154.822266	870538.062500
-10.722373	21.898673	1153.714844	863990.000000
-10.722373	21.898673	1152.606445	863112.812500
-10.722373	21.898673	1151.499023	854821.812500
-10.722373	21.898673	1150.390625	847850.937500
-10.722373	21.898673	1149.282227	846857.937500
-10.722373	21.898673	1148.173828	843362.312500
-10.722373	21.898673	1147.064453	843453.187500
-10.722373	21.898673	1145.956055	842659.000000
-10.722373	21.898673	1144.846680	839678.750000
-10.722373	21.898673	1143.736328	841789.750000
-10.722373	21.898673	1142.626953	839728.437500
-10.722373	21.898673	1141.516602	837723.437500
-10.722373	21.898673	1140.406250	831911.062500
-10.722373	21.898673	1139.295898	825425.687500
-10.722373	21.898673	1138.184570	820194.312500
-10.722373	21.898673	1137.073242	818339.187500
-10.722373	21.898673	1135.961914	817863.750000
-10.722373	21.898673	1134.850586	813865.625000
-10.722373	21.898673	1133.738281	809216.625000
-10.722373	21.898673	1132.625977	811508.125000
-10.722373	21.898673	1131.513672	808299.000000
-10.722373	21.898673	1130.400391	808053.687500
-10.722373	21.898673	1129.288086	807289.062500
-10.722373	21.898673	1128.174805	803322.687500
-10.722373	21.898673	1127.061523	802583.625000
-10.722373	21.898673	1125.947266	803472.687500
-10.722373	21.898673	1124.833008	802382.625000
-10.722373	21.898673	1123.718750	799041.125000
-10.722373	21.898673	1122.604492	800779.937500
-10.722373	21.898673	1121.490234	800236.125000
-10.722373	21.898673	1120.375000	801686.875000
-10.722373	21.898673	1119.259766	799810.687500
-10.722373	21.898673	1118.144531	802270.750000
-10.722373	21.898673	1117.028320	801764.250000
-10.722373	21.898673	1115.912109	801094.812500
-10.722373	21.898673	1114.795898	800535.750000
-10.722373	21.898673	1113.679688	802777.125000
-10.722373	21.898673	1112.562500	800028.375000
-10.722373	21.898673	1111.445312	800110.562500
-10.722373	21.898673	1110.328125	797724.562500
-10.722373	21.898673	1109.210938	798610.562500
-10.722373	21.898673	1108.092773	792951.250000
-10.722373	21.898673	1106.974609	792845.500000
-10.722373	21.898673	1105.856445	791822.500000
-10.722373	21.898673	1104.737305	789742.062500
-10.722373	21.898673	1103.619141	788834.375000
-10.722373	21.898673	1102.500000	787236.875000
-10.722373	21.898673	1101.379883	784068.687500
-10.722373	21.898673	1100.260742	784120.625000
-10.722373	21.898673	1099.140625	782314.187500
-10.722373	21.898673	1098.020508	782856.125000
-10.722373	21.898673	1096.900391	782238.500000
-10.722373	21.898673	1095.779297	779397.437500
-10.722373	21.898673	1094.658203	779687.062500
-10.722373	21.898673	1093.537109	777615.687500
-10.722373	21.898673	1092.416016	776938.125000
-10.722373	21.898673	1091.293945	775670.812500
-10.722373	21.898673	1090.171875	773408.625000
-10.722373	21.898673	1089.049805	776390.750000
-10.722373	21.898673	1087.926758	774775.812500
-10.722373	21.898673	1086.804688	772243.500000
-10.722373	21.898673	1085.681641	772680.437500
-10.722373	21.898673	1084.557617	770357.687500
-10.722373	21.898673	1083.434570	769154.812500
-10.722373	21.898673	1082.310547	768731.625000
-10.722373	21.898673	1081.186523	766507.500000
-10.722373	21.898673	1080.062500	767848.500000
-10.722373	21.898673	1078.937500	765260.125000
-10.722373	21.898673	1077.812500	764162.250000
-10.722373	21.898673	1076.687500	767874.937500
-10.722373	21.898673	1075.562500	765933.000000
-10.722373	21.898673	1074.436523	766553.250000
-10.722373	21.898673	1073.310547	764203.812500
-10.722373	21.898673	1072.184570	766010.125000
-10.722373	21.898673	1071.058594	767498.875000
-10.722373	21.898673	1069.931641	766598.250000
-10.722373	21.898673	1068.804688	765217.687500
-10.722373	21.898673	1067.677734	765275.937500
-10.722373	21.898673	1066.549805	767001.000000
-10.722373	21.898673	1065.421875	761513.562500
-10.722373	21.898673	1064.293945	760137.375000
-10.722373	21.898673	1063.166016	760224.812500
-10.722373	21.898673	1062.038086	761870.687500
-10.722373	21.898673	1060.909180	760861.312500
-10.722373	21.898673	1059.780273	758745.437500
-10.722373	21.898673	1058.650391	758678.125000
-10.722373	21.898673	1057.520508	758085.937500
-10.722373	21.898673	1056.391602	759148.750000
-10.722373	21.898673	1055.260742	759251.000000
-10.722373	21.898673	1054.130859	760478.250000
-10.722373	21.898673	1053.000000	761487.312500
-10.722373	21.898673	1051.869141	759352.500000
-10.722373	21.898673	1050.738281	759132.437500
-10.722373	21.898673	1049.606445	763441.500000
-10.722373	21.898673	1048.474609	762229.250000
-10.722373	21.898673	1047.342773	761145.625000
-10.722373	21.898673	1046.210938	759254.250000
-10.722373	21.898673	1045.078125	759131.875000
-10.722373	21.898673	1043.946289	757504.437500
-10.722373	21.898673	1042.812500	755727.875000
-10.722373	21.898673	1041.679688	752680.000000
-10.722373	21.898673	1040.545898	753539.937500
-10.722373	21.898673	1039.412109	752464.000000
-10.722373	21.898673	1038.278320	749574.937500
-10.722373	21.898673	1037.143555	748409.187500
-10.722373	21.898673	1036.009766	748423.500000
-10.722373	21.898673	1034.875000	746957.062500
-10.722373	21.898673	1033.739258	747435.312500
-10.722373	21.898673	1032.604492	747076.875000
-10.722373	21.898673	1031.468750	748878.312500
-10.722373	21.898673	1030.333008	748047.437500
-10.722373	21.898673	1029.196289	747203.937500
-10.722373	21.898673	1028.060547	745219.937500
-10.722373	21.898673	1026.923828	743182.687500
-10.722373	21.898673	1025.786133	746228.875000
-10.722373	21.898673	1024.649414	744590.250000
-10.722373	21.898673	1023.511719	741328.125000
-10.722373	21.898673	1022.374023	743866.437500
-10.722373	21.898673	1021.236328	747138.437500
-10.722373	21.898673	1020.097656	745150.750000
-10.722373	21.898673	1018.958984	746340.125000
-10.722373	21.898673	1017.820312	745403.187500
-10.722373	21.898673	1016.681641	745723.625000
-10.722373	21.898673	1015.541992	746331.000000
-10.722373	21.898673	1014.402344	746676.812500
-10.722373	21.898673	1013.262695	744989.375000
-10.722373	21.898673	1012.122070	749411.000000
-10.722373	21.898673	1010.982422	747926.437500
-10.722373	21.898673	1009.841797	751424.250000
-10.722373	21.898673	1008.700195	751134.250000
-10.722373	21.898673	1007.559570	755256.812500
-10.722373	21.898673	1006.417969	755653.375000
-10.722373	21.898673	1005.276367	757167.937500
-10.722373	21.898673	1004.133789	755872.750000
-10.722373	21.898673	1002.992188	756643.437500
-10.722373	21.898673	1001.849609	756561.062500
-10.722373	21.898673	1000.706055	755860.812500
-10.722373	21.898673	999.563477	752696.750000
-10.722373	21.898673	998.419922	756318.000000
-10.722373	21.898673	997.276367	751929.000000
-10.722373	21.898673	996.132812	756266.937500
-10.722373	21.898673	994.988281	752071.250000
-10.722373	21.898673	993.843750	754130.562500
-10.722373	21.898673	992.699219	752700.875000
-10.722373	21.898673	991.554688	754842.750000
-10.722373	21.898673	990.409180	756953.500000
-10.722373	21.898673	989.263672	757164.687500
-10.722373	21.898673	988.118164	760536.187500
-10.722373	21.898673	986.971680	758290.687500
-10.722373	21.898673	985.825195	762359.875000
-10.722373	21.898673	984.678711	756012.562500
-10.722373	21.898673	983.532227	752975.812500
-10.722373	21.898673	982.384766	752543.937500
-10.722373	21.898673	981.237305	750915.750000
-10.722373	21.898673	980.089844	747817.875000
-10.722373	21.898673	978.942383	750340.375000
-10.722373	21.898673	977.793945	748696.562500
-10.722373	21.898673	976.645508	746123.812500
-10.722373	21.898673	975.497070	749010.937500
-10.722373	21.898673	974.347656	746546.250000
-10.722373	21.898673	973.198242	745718.000000
-10.722373	21.898673	972.048828	743700.250000
-10.722373	21.898673	970.899414	744314.937500
-10.722373	21.898673	969.749023	745688.625000
-10.722373	21.898673	968.598633	743533.062500
-10.722373	21.898673	967.448242	744991.687500
-10.722373	21.898673	966.297852	746485.937500
-10.722373	21.898673	965.146484	748567.062500
-10.722373	21.898673	963.995117	747158.250000
-10.722373	21.898673	962.842773	744269.750000
-10.722373	21.898673	961.691406	743864.062500
-10.722373	21.898673	960.539062	742941.750000
-10.722373	21.898673	959.386719	745234.375000
-10.722373	21.898673	958.233398	742611.312500
-10.722373	21.898673	957.081055	743153.375000
-10.722373	21.898673	955.927734	742216.937500
-10.722373	21.898673	954.773438	743468.812500
-10.722373	21.898673	953.620117	743238.312500
-10.722373	21.898673	952.465820	742253.312500
-10.722373	21.898673	951.311523	742570.750000
-10.722373	21.898673	950.156250	740893.875000
-10.722373	21.898673	949.001953	742404.125000
-10.722373	21.898673	947.846680	740057.125000
-10.722373	21.898673	946.690430	740540.562500
-10.722373	21.898673	945.535156	740919.437500
-10.722373	21.898673	944.378906	740563.937500
-10.722373	21.898673	943.222656	738353.375000
-10.722373	21.898673	942.066406	741448.375000
-10.722373	21.898673	940.909180	740144.375000
-10.722373	21.898673	939.751953	743405.375000
-10.722373	21.898673	938.594727	740260.812500
-10.722373	21.898673	937.437500	739406.187500
-10.722373	21.898673	936.279297	744326.187500
-10.722373	21.898673	935.121094	741688.875000
-10.722373	21.898673	933.962891	740140.000000
-10.722373	21.898673	932.803711	740071.437500
-10.722373	21.898673	931.644531	742445.812500
-10.722373	21.898673	930.485352	743185.125000
-10.722373	21.898673	929.326172	744969.875000
-10.722373	21.898673	928.166016	743998.625000
-10.722373	21.898673	927.005859	746490.437500
-10.722373	21.898673	925.845703	748147.875000
-10.722373	21.898673	924.684570	749172.875000
-10.722373	21.898673	923.523438	748737.375000
-10.722373	21.898673	922.362305	750426.812500
-10.722373	21.898673	921.201172	753809.750000
-10.722373	21.898673	920.039062	754144.000000
-10.722373	21.898673	918.876953	756592.875000
-10.722373	21.898673	917.714844	759275.437500
-10.722373	21.898673	916.551758	754563.625000
-10.722373	21.898673	915.389648	756189.687500
-10.722373	21.898673	914.226562	756609.437500
-10.722373	21.898673	913.062500	753588.750000
-10.722373	21.898673	911.899414	753440.125000
-10.722373	21.898673	910.735352	752847.625000
-10.722373	21.898673	909.570312	748019.000000
-10.722373	21.898673	908.406250	747954.000000
-10.722373	21.898673	907.241211	749242.687500
-10.722373	21.898673	906.076172	748645.250000
-10.722373	21.898673	904.911133	748744.562500
-10.722373	21.898673	903.745117	745963.125000
-10.722373	21.898673	902.579102	746938.562500
-10.722373	21.898673	901.413086	749419.625000
-10.722373	21.898673	900.247070	746308.625000
-10.722373	21.898673	899.080078	744942.750000
-10.722373	21.898673	897.913086	743897.875000
-10.722373	21.898673	896.746094	745574.125000
-10.722373	21.898673	895.578125	745555.562500
-10.722373	21.898673	894.410156	744127.750000
-10.722373	21.898673	893.242188	745151.812500
-10.722373	21.898673	892.073242	744571.062500
-10.722373	21.898673	890.905273	742723.312500
-10.722373	21.898673	889.736328	744759.062500
-10.722373	21.898673	888.566406	743740.937500
-10.722373	21.898673	887.397461	744778.375000
-10.722373	21.898673	886.227539	744755.312500
-10.722373	21.898673	885.057617	744339.062500
-10.722373	21.898673	883.886719	744952.937500
-10.722373	21.898673	882.716797	740537.687500
-10.722373	21.898673	881.545898	741433.562500
-10.722373	21.898673	880.374023	742492.750000
-10.722373	21.898673	879.203125	742129.750000
-10.722373	21.898673	878.031250	740843.125000
-10.722373	21.898673	876.859375	741647.562500
-10.722373	21.898673	875.686523	741316.312500
-10.722373	21.898673	874.514648	741553.687500
-10.722373	21.898673	873.341797	741876.937500
-10.722373	21.898673	872.167969	742426.437500
-10.722373	21.898673	870.995117	740805.750000
-10.722373	21.898673	869.821289	742593.812500
-10.722373	21.898673	868.647461	739312.062500
-10.722373	21.898673	867.472656	737152.562500
-10.722373	21.898673	866.298828	738977.812500
-10.722373	21.898673	865.124023	737200.437500
-10.722373	21.898673	863.948242	740464.937500
-10.722373	21.898673	862.773438	739223.750000
-10.722373	21.898673	861.597656	739910.312500
-10.722373	21.898673	860.421875	738653.000000
-10.722373	21.898673	859.245117	737668.125000
-10.722373	21.898673	858.069336	736478.687500
-10.722373	21.898673	856.892578	738544.750000
-10.722373	21.898673	855.715820	740812.437500
-10.722373	21.898673	854.538086	737658.875000
-10.722373	21.898673	853.360352	737679.937500
-10.722373	21.898673	852.182617	735562.312500
-10.722373	21.898673	851.004883	739897.562500
-10.722373	21.898673	849.826172	739439.875000
-10.722373	21.898673	848.647461	739879.750000
-10.722373	21.898673	847.468750	740329.812500
-10.722373	21.898673	846.289062	741463.812500
-10.722373	21.898673	845.109375	739033.000000
-10.722373	21.898673	843.929688	739516.125000
-10.722373	21.898673	842.750000	741143.437500
-10.722373	21.898673	841.569336	740291.875000
-10.722373	21.898673	840.388672	741103.437500
-10.722373	21.898673	839.207031	740847.937500
-10.722373	21.898673	838.026367	741627.625000
-10.722373	21.898673	836.844727	743146.000000
-10.722373	21.898673	835.663086	741102.000000
-10.722373	21.898673	834.480469	743516.562500
-10.722373	21.898673	833.298828	742039.312500
-10.722373	21.898673	832.116211	742931.875000
-10.722373	21.898673	830.932617	741575.937500
-10.722373	21.898673	829.750000	743066.812500
-10.722373	21.898673	828.566406	742370.312500
-10.722373	21.898673	827.382812	743633.750000
-10.722373	21.898673	826.198242	745555.062500
-10.722373	21.898673	825.013672	742934.875000
-10.722373	21.898673	823.829102	741761.187500
-10.722373	21.898673	822.644531	745170.062500
-10.722373	21.898673	821.458984	744521.437500
-10.722373	21.898673	820.273438	746379.875000
-10.722373	21.898673	819.087891	746125.312500
-10.722373	21.898673	817.902344	744259.250000
-10.722373	21.898673	816.715820	746145.250000
-10.722373	21.898673	815.529297	746297.187500
-10.722373	21.898673	814.342773	746326.687500
-10.722373	21.898673	813.155273	744918.000000
-10.722373	21.898673	811.967773	746074.687500
-10.722373	21.898673	810.780273	747819.000000
-10.722373	21.898673	809.591797	746195.437500
-10.722373	21.898673	808.403320	746566.250000
-10.722373	21.898673	807.214844	745537.687500
-10.722373	21.898673	806.026367	745190.312500
-10.722373	21.898673	804.836914	747714.500000
-10.722373	21.898673	803.647461	749743.062500
-10.722373	21.898673	802.458008	746264.250000
-10.722373	21.898673	801.267578	746987.687500
-10.722373	21.898673	800.078125	746460.312500
-10.722373	21.898673	798.887695	747148.125000
-10.722373	21.898673	797.696289	748017.375000
-10.722373	21.898673	796.504883	747413.562500
-10.722373	21.898673	795.313477	745641.375000
-10.722373	21.898673	794.122070	748085.187500
-10.722373	21.898673	792.929688	748385.625000
-10.722373	21.898673	791.738281	749152.125000
-10.722373	21.898673	790.544922	750908.375000
-10.722373	21.898673	789.352539	749192.875000
-10.722373	21.898673	788.159180	746121.437500
-10.722373	21.898673	786.965820	747831.687500
-10.722373	21.898673	785.772461	746239.562500
-10.722373	21.898673	784.578125	746148.125000
-10.722373	21.898673	783.383789	745607.562500
-10.722373	21.898673	782.189453	749552.562500
-10.722373	21.898673	780.995117	748138.437500
-10.722373	21.898673	779.799805	747745.875000
-10.722373	21.898673	778.604492	748759.000000
-10.722373	21.898673	777.408203	749078.250000
-10.722373	21.898673	776.212891	749611.187500
-10.722373	21.898673	775.016602	746954.312500
-10.722373	21.898673	773.819336	750974.312500
-10.722373	21.898673	772.623047	749175.437500
-10.722373	21.898673	771.425781	752570.187500
-10.722373	21.898673	770.228516	751909.875000
-10.722373	21.898673	769.031250	751399.750000
-10.722373	21.898673	767.833008	752668.062500
-10.722373	21.898673	766.634766	752835.375000
-10.722373	21.898673	765.435547	753606.000000
-10.722373	21.898673	764.237305	751567.000000
-10.722373	21.898673	763.038086	753718.187500
-10.722373	21.898673	761.838867	754360.687500
-10.722373	21.898673	760.638672	755460.187500
-10.722373	21.898673	759.439453	759320.500000
-10.722373	21.898673	758.238281	762377.500000
-10.722373	21.898673	757.038086	766242.437500
-10.722373	21.898673	755.836914	767046.937500
-10.722373	21.898673	754.636719	766644.687500
-10.722373	21.898673	753.434570	766396.125000
-10.722373	21.898673	752.233398	765973.625000
-10.722373	21.898673	751.031250	766527.500000
-10.722373	21.898673	749.829102	765984.375000
-10.722373	21.898673	748.625977	767294.812500
-10.722373	21.898673	747.423828	770439.062500
-10.722373	21.898673	746.220703	777274.500000
-10.722373	21.898673	745.016602	777193.125000
-10.722373	21.898673	743.813477	774694.062500
-10.722373	21.898673	742.609375	771879.437500
-10.722373	21.898673	741.405273	768034.562500
-10.722373	21.898673	740.200195	763239.812500
-10.722373	21.898673	738.996094	759827.500000
-10.722373	21.898673	737.790039	757165.937500
-10.722373	21.898673	736.584961	755536.187500
-10.722373	21.898673	735.378906	754035.687500
-10.722373	21.898673	734.173828	753633.250000
-10.722373	21.898673	732.966797	752662.000000
-10.722373	21.898673	731.760742	753813.625000
-10.722373	21.898673	730.553711	753093.437500
-10.722373	21.898673	729.346680	754354.312500
-10.722373	21.898673	728.138672	751920.812500
-10.722373	21.898673	726.931641	753664.062500
-10.722373	21.898673	725.723633	751759.250000
-10.722373	21.898673	724.514648	749786.062500
-10.722373	21.898673	723.306641	751909.000000
-10.722373	21.898673	722.097656	750068.937500
-10.722373	21.898673	720.888672	750843.937500
-10.722373	21.898673	719.678711	749527.625000
-10.722373	21.898673	718.468750	749777.687500
-10.722373	21.898673	717.258789	749238.750000
-10.722373	21.898673	716.048828	749563.875000
-10.722373	21.898673	714.837891	750075.687500
-10.722373	21.898673	713.626953	749051.437500
-10.722373	21.898673	712.416016	748389.125000
-19.589040	8.375501	1808.186523	656497.937500
-19.589040	8.375501	1807.220703	657384.062500
-19.589040	8.375501	1806.254883	659843.875000
-19.589040	8.375501	1805.288086	658431.062500
-19.589040	8.375501	1804.321289	658268.375000
-19.589040	8.375501	1803.354492	660222.625000
-19.589040	8.375501	1802.387695	659446.500000
-19.589040	8.375501	1801.419922	660003.375000
-19.589040	8.375501	1800.453125	660722.687500
-19.589040	8.375501	1799.485352	659568.062500
-19.589040	8.375501	1798.517578	663301.562500
-19.589040	8.375501	1797.548828	662418.750000
-19.589040	8.375501	1796.581055	664361.437500
-19.589040	8.375501	1795.612305	665216.187500
-19.589040	8.375501	1794.643555	662814.750000
-19.589040	8.375501	1793.674805	663532.250000
-19.589040	8.375501	1792.706055	665011.000000
-19.589040	8.375501	1791.736328	667935.750000
-19.589040	8.375501	1790.766602	665840.125000
-19.589040	8.375501	1789.796875	668258.562500
-19.589040	8.375501	1788.827148	666889.187500
-19.589040	8.375501	1787.857422	669144.000000
-19.589040	8.375501	1786.886719	668147.625000
-19.589040	8.375501	1785.916992	670203.500000
-19.589040	8.375501	1784.946289	673533.250000
-19.589040	8.375501	1783.974609	671013.687500
-19.589040	8.375501	1783.003906	672497.625000
-19.589040	8.375501	1782.032227	675308.062500
-19.589040	8.375501	1781.061523	675002.687500
-19.589040	8.375501	1780.089844	674292.375000
-19.589040	8.375501	1779.117188	678674.937500
-19.589040	8.375501	1778.145508	678690.375000
-19.589040	8.375501	1777.172852	677961.937500
-19.589040	8.375501	1776.200195	678708.500000
-19.589040	8.375501	1775.227539	679219.562500
-19.589040	8.375501	1774.254883	683353.625000
-19.589040	8.375501	1773.282227	681057.375000
-19.589040	8.375501	1772.308594	682004.750000
-19.589040	8.375501	1771.334961	684172.187500
-19.589040	8.375501	1770.361328	685474.625000
-19.589040	8.375501	1769.387695	684584.125000
-19.589040	8.375501	1768.413086	686663.687500
-19.589040	8.375501	1767.438477	688381.312500
-19.589040	8.375501	1766.463867	689701.875000
-19.589040	8.375501	1765.489258	690802.312500
-19.589040	8.375501	1764.514648	690857.625000
-19.589040	8.375501	1763.539062	693460.812500
-19.589040	8.375501	1762.564453	695283.562500
-19.589040	8.375501	1761.588867	694397.250000
-19.589040	8.375501	1760.612305	695868.500000
-19.589040	8.375501	1759.636719	697535.750000
-19.589040	8.375501	1758.660156	697098.000000
-19.589040	8.375501	1757.684570	697237.375000
-19.589040	8.375501	1756.708008	699308.687500
-19.589040	8.375501	1755.730469	702920.437500
-19.589040	8.375501	1754.753906	700663.875000
-19.589040	8.375501	1753.776367	704175.562500
-19.589040	8.375501	1752.798828	704864.375000
-19.589040	8.375501	1751.821289	705185.437500
-19.589040	8.375501	1750.843750	708769.375000
-19.589040	8.375501	1749.866211	708536.062500
-19.589040	8.375501	1748.887695	709233.312500
-19.589040	8.375501	1747.909180	709756.687500
-19.589040	8.375501	1746.930664	712331.062500
-19.589040	8.375501	1745.952148	711727.625000
-19.589040	8.375501	1744.972656	714122.000000
-19.589040	8.375501	1743.993164	716241.562500
-19.589040	8.375501	1743.013672	716810.500000
-19.589040	8.375501	1742.034180	717786.000000
-19.589040	8.375501	1741.054688	718311.625000
-19.589040	8.375501	1740.074219	721058.437500
-19.589040	8.375501	1739.094727	720606.875000
-19.589040	8.375501	1738.114258	723607.875000
-19.589040	8.375501	1737.132812	723344.000000
-19.589040	8.375501	1736.152344	726415.875000
-19.589040	8.375501	1735.170898	726294.437500
-19.589040	8.375501	1734.190430	725824.500000
-19.589040	8.375501	1733.208008	727901.250000
-19.589040	8.375501	1732.226562	729498.500000
-19.589040	8.375501	1731.245117	731909.250000
-19.589040	8.375501	1730.262695	730962.437500
-19.589040	8.375501	1729.280273	735307.687500
-19.589040	8.375501	1728.297852	735795.187500
-19.589040	8.375501	1727.315430	735233.625000
-19.589040	8.375501	1726.332031	738121.000000
-19.589040	8.375501	1725.349609	737676.687500
-19.589040	8.375501	1724.366211	740061.937500
-19.589040	8.375501	1723.382812	741565.687500
-19.589040	8.375501	1722.398438	740505.625000
-19.589040	8.375501	1721.415039	746608.937500
-19.589040	8.375501	1720.430664	747000.437500
-19.589040	8.375501	1719.446289	746742.000000
-19.589040	8.375501	1718.461914	749456.937500
-19.589040	8.375501	1717.476562	750599.437500
-19.589040	8.375501	1716.492188	752708.000000
-19.589040	8.375501	1715.506836	750760.437500
-19.589040	8.375501	1714.521484	755049.875000
-19.589040	8.375501	1713.536133	754550.187500
-19.589040	8.375501	1712.549805	757671.625000
-19.589040	8.375501	1711.564453	759052.750000
-19.589040	8.375501	1710.578125	759550.187500
-19.589040	8.375501	1709.591797	761077.375000
-19.589040	8.375501	1708.604492	762950.437500
-19.589040	8.375501	1707.618164	766966.562500
-19.589040	8.375501	1706.630859	767075.437500
-19.589040	8.375501	1705.643555	767837.125000
-19.589040	8.375501	1704.656250	769034.437500
-19.589040	8.375501	1703.668945	771581.187500
-19.589040	8.375501	1702.680664	771056.312500
-19.589040	8.375501	1701.692383	775770.000000
-19.589040	8.375501	1700.704102	778779.125000
-19.589040	8.375501	1699.715820	778342.562500
-19.589040	8.375501	1698.727539	777948.437500
-19.589040	8.375501	1697.738281	782353.062500
-19.589040	8.375501	1696.749023	783393.250000
-19.589040	8.375501	1695.759766	785574.312500
-19.589040	8.375501	1694.770508	786424.312500
-19.589040	8.375501	1693.780273	790214.375000
-19.589040	8.375501	1692.791016	793677.250000
-19.589040	8.375501	1691.800781	793876.500000
-19.589040	8.375501	1690.810547	794527.625000
-19.589040	8.375501	1689.819336	797026.187500
-19.589040	8.375501	1688.829102	800412.562500
-19.589040	8.375501	1687.837891	797506.937500
-19.589040	8.375501	1686.846680	803951.937500
-19.589040	8.375501	1685.855469	803297.312500
-19.589040	8.375501	1684.864258	807622.062500
-19.589040	8.375501	1683.872070	808358.375000
-19.589040	8.375501	1682.879883	809701.875000
-19.589040	8.375501	1681.887695	811753.875000
-19.589040	8.375501	1680.895508	812515.937500
-19.589040	8.375501	1679.903320	813297.500000
-19.589040	8.375501	1678.910156	817973.750000
-19.589040	8.375501	1677.916992	819132.750000
-19.589040	8.375501	1676.923828	820268.875000
-19.589040	8.375501	1675.930664	824118.437500
-19.589040	8.375501	1674.936523	827852.500000
-19.589040	8.375501	1673.942383	828560.250000
-19.589040	8.375501	1672.949219	830373.812500
-19.589040	8.375501	1671.954102	830949.500000
-19.589040	8.375501	1670.959961	829971.500000
-19.589040	8.375501	1669.964844	833361.312500
-19.589040	8.375501	1668.970703	836418.312500
-19.589040	8.375501	1667.975586	836900.562500
-19.589040	8.375501	1666.979492	840504.187500
-19.589040	8.375501	1665.984375	840602.250000
-19.589040	8.375501	1664.988281	842501.250000
-19.589040	8.375501	1663.993164	846417.375000
-19.589040	8.375501	1662.996094	844108.750000
-19.589040	8.375501	1662.000000	845430.437500
-19.589040	8.375501	1661.003906	847472.250000
-19.589040	8.375501	1660.006836	850663.187500
-19.589040	8.375501	1659.009766	852587.000000
-19.589040	8.375501	1658.012695	850703.500000
-19.589040	8.375501	1657.015625	854678.437500
-19.589040	8.375501	1656.017578	855261.000000
-19.589040	8.375501	1655.019531	855764.437500
-19.589040	8.375501	1654.021484	861966.250000
-19.589040	8.375501	1653.023438	860457.125000
-19.589040	8.375501	1652.025391	863760.250000
-19.589040	8.375501	1651.026367	863805.562500
-19.589040	8.375501	1650.027344	865333.375000
-19.589040	8.375501	1649.028320	867574.500000
-19.589040	8.375501	1648.029297	866973.812500
-19.589040	8.375501	1647.029297	867840.187500
-19.589040	8.375501	1646.029297	868546.250000
-19.589040	8.375501	1645.030273	869581.562500
-19.589040	8.375501	1644.029297	871334.625000
-19.589040	8.375501	1643.029297	875300.125000
-19.589040	8.375501	1642.028320	877928.875000
-19.589040	8.375501	1641.028320	877331.375000
-19.589040	8.375501	1640.027344	877746.687500
-19.589040	8.375501	1639.025391	880608.937500
-19.589040	8.375501	1638.024414	878832.000000
-19.589040	8.375501	1637.022461	884106.937500
-19.589040	8.375501	1636.020508	886482.187500
-19.589040	8.375501	1635.018555	886018.312500
-19.589040	8.375501	1634.016602	887896.250000
-19.589040	8.375501	1633.014648	889630.937500
-19.589040	8.375501	1632.011719	891065.500000
-19.589040	8.375501	1631.008789	891444.687500
-19.589040	8.375501	1630.005859	893483.937500
-19.589040	8.375501	1629.001953	894823.437500
-19.589040	8.375501	1627.999023	895230.812500
-19.589040	8.375501	1626.995117	897799.625000
-19.589040	8.375501	1625.991211	901447.875000
-19.589040	8.375501	1624.987305	899325.187500
-19.589040	8.375501	1623.982422	901154.062500
-19.589040	8.375501	1622.977539	905702.750000
-19.589040	8.375501	1621.973633	907429.000000
-19.589040	8.375501	1620.967773	908765.312500
-19.589040	8.375501	1619.962891	912653.437500
-19.589040	8.375501	1618.958008	915145.250000
-19.589040	8.375501	1617.952148	917741.125000
-19.589040	8.375501	1616.946289	920873.875000
-19.589040	8.375501	1615.940430	923489.375000
-19.589040	8.375501	1614.933594	923502.500000
-19.589040	8.375501	1613.927734	926565.875000
-19.589040	8.375501	1612.920898	929285.812500
-19.589040	8.375501	1611.914062	928532.875000
-19.589040	8.375501	1610.906250	932763.062500
-19.589040	8.375501	1609.899414	930937.437500
-19.589040	8.375501	1608.891602	929869.437500
-19.589040	8.375501	1607.883789	936720.687500
-19.589040	8.375501	1606.875977	934260.625000
-19.589040	8.375501	1605.868164	936845.125000
-19.589040	8.375501	1604.859375	938828.375000
-19.589040	8.375501	1603.850586	939557.000000
-19.589040	8.375501	1602.841797	940019.500000
-19.589040	8.375501	1601.833008	940286.750000
-19.589040	8.375501	1600.824219	945506.687500
-19.589040	8.375501	1599.814453	944512.562500
-19.589040	8.375501	1598.804688	946240.312500
-19.589040	8.375501	1597.794922	949635.812500
-19.589040	8.375501	1596.784180	949374.312500
-19.589040	8.375501	1595.774414	951508.812500
-19.589040	8.375501	1594.763672	951166.562500
-19.589040	8.375501	1593.752930	954003.000000
-19.589040	8.375501	1592.742188	953981.375000
-19.589040	8.375501	1591.730469	953305.312500
-19.589040	8.375501	1590.719727	958352.687500
-19.589040	8.375501	1589.708008	957080.062500
-19.589040	8.375501	1588.696289	959197.125000
-19.589040	8.375501	1587.684570	964079.437500
-19.589040	8.375501	1586.671875	966227.937500
-19.589040	8.375501	1585.659180	966822.937500
-19.589040	8.375501	1584.646484	971263.062500
-19.589040	8.375501	1583.633789	971756.937500
-19.589040	8.375501	1582.621094	969278.500000
-19.589040	8.375501	1581.607422	970889.187500
-19.589040	8.375501	1580.593750	972278.312500
-19.589040	8.375501	1579.580078	976908.750000
-19.589040	8.375501	1578.566406	977873.687500
-19.589040	8.375501	1577.551758	978855.125000
-19.589040	8.375501	1576.538086	981652.500000
-19.589040	8.375501	1575.523438	982836.250000
-19.589040	8.375501	1574.508789	985112.687500
-19.589040	8.375501	1573.493164	984591.250000
-19.589040	8.375501	1572.478516	987365.375000
-19.589040	8.375501	1571.462891	990959.437500
-19.589040	8.375501	1570.447266	992292.187500
-19.589040	8.375501	1569.430664	994946.437500
-19.589040	8.375501	1568.415039	998422.625000
-19.589040	8.375501	1567.398438	998002.687500
-19.589040	8.375501	1566.381836	998637.937500
-19.589040	8.375501	1565.365234	1004665.875000
-19.589040	8.375501	1564.348633	1004912.250000
-19.589040	8.375501	1563.331055	1006960.250000
-19.589040	8.375501	1562.313477	1008840.437500
-19.589040	8.375501	1561.295898	1010415.125000
-19.589040	8.375501	1560.278320	1016735.875000
-19.589040	8.375501	1559.260742	1019151.437500
-19.589040	8.375501	1558.242188	1023389.812500
-19.589040	8.375501	1557.223633	1026834.125000
-19.589040	8.375501	1556.205078	1031110.000000
-19.589040	8.375501	1555.185547	1032230.875000
-19.589040	8.375501	1554.166992	1037428.125000
-19.589040	8.375501	1553.147461	1041146.125000
-19.589040	8.375501	1552.127930	1041141.937500
-19.589040	8.375501	1551.108398	1041680.375000
-19.589040	8.375501	1550.087891	1041292.437500
-19.589040	8.375501	1549.068359	1043737.812500
-19.589040	8.375501	1548.047852	1045458.875000
-19.589040	8.375501	1547.027344	1046926.000000
-19.589040	8.375501	1546.005859	1048088.812500
-19.589040	8.375501	1544.985352	1046579.250000
-19.589040	8.375501	1543.963867	1054707.375000
-19.589040	8.375501	1542.942383	1054249.250000
-19.589040	8.375501	1541.920898	1055753.500000
-19.589040	8.375501	1540.898438	1063948.875000
-19.589040	8.375501	1539.875977	1067520.000000
-19.589040	8.375501	1538.853516	1071546.625000
-19.589040	8.375501	1537.831055	1079560.000000
-19.589040	8.375501	1536.808594	1085465.375000
-19.589040	8.375501	1535.785156	1089843.625000
-19.589040	8.375501	1534.762695	1097566.375000
-19.589040	8.375501	1533.738281	1100495.500000
-19.589040	8.375501	1532.714844	1103240.625000
-19.589040	8.375501	1531.691406	1111870.750000
-19.589040	8.375501	1530.666992	1117890.875000
-19.589040	8.375501	1529.642578	1121987.125000
-19.589040	8.375501	1528.618164	1129265.250000
-19.589040	8.375501	1527.593750	1135299.125000
-19.589040	8.375501	1526.568359	1136441.625000
-19.589040	8.375501	1525.542969	1135935.125000
-19.589040	8.375501	1524.517578	1140516.875000
-19.589040	8.375501	1523.492188	1141230.250000
-19.589040	8.375501	1522.465820	1136619.875000
-19.589040	8.375501	1521.440430	1134224.125000
-19.589040	8.375501	1520.414062	1130518.250000
-19.589040	8.375501	1519.386719	1126353.750000
-19.589040	8.375501	1518.360352	1121752.500000
-19.589040	8.375501	1517.333008	1115586.625000
-19.589040	8.375501	1516.306641	1115331.250000
-19.589040	8.375501	1515.278320	1111525.250000
-19.589040	8.375501	1514.250977	1108402.875000
-19.589040	8.375501	1513.223633	1107909.750000
-19.589040	8.375501	1512.195312	1105083.625000
-19.589040	8.375501	1511.166992	1101883.125000
-19.589040	8.375501	1510.138672	1101563.625000
-19.589040	8.375501	1509.109375	1101743.875000
-19.589040	8.375501	1508.081055	1099781.875000
-19.589040	8.375501	1507.051758	1096850.125000
-19.589040	8.375501	1506.022461	1099322.750000
-19.589040	8.375501	1504.992188	1099574.750000
-19.589040	8.375501	1503.962891	1098624.875000
-19.589040	8.375501	1502.932617	1099526.250000
-19.589040	8.375501	1501.902344	1105116.625000
-19.589040	8.375501	1500.872070	1103359.125000
-19.589040	8.375501	1499.840820	1102993.625000
-19.589040	8.375501	1498.810547	1105544.125000
-19.589040	8.375501	1497.779297	1110863.250000
-19.589040	8.375501	1496.748047	1110157.500000
-19.589040	8.375501	1495.715820	1113050.375000
-19.589040	8.375501	1494.684570	1117520.125000
-19.589040	8.375501	1493.652344	1120317.000000
-19.589040	8.375501	1492.620117	1122400.000000
-19.589040	8.375501	1491.586914	1125747.250000
-19.589040	8.375501	1490.554688	1127778.000000
-19.589040	8.375501	1489.521484	1129593.375000
-19.589040	8.375501	1488.488281	1130886.500000
-19.589040	8.375501	1487.455078	1131826.750000
-19.589040	8.375501	1486.421875	1131876.250000
-19.589040	8.375501	1485.387695	1136194.500000
-19.589040	8.375501	1484.353516	1137111.125000
-19.589040	8.375501	1483.319336	1136947.625000
-19.589040	8.375501	1482.285156	1137887.375000
-19.589040	8.375501	1481.250000	1139202.250000
-19.589040	8.375501	1480.214844	1144257.750000
-19.589040	8.375501	1479.179688	1145083.375000
-19.589040	8.375501	1478.144531	1142572.625000
-19.589040	8.375501	1477.109375	1144096.375000
-19.589040	8.375501	1476.073242	1148246.125000
-19.589040	8.375501	1475.037109	1151280.250000
-19.589040	8.375501	1474.000977	1154567.000000
-19.589040	8.375501	1472.964844	1154021.625000
-19.589040	8.375501	1471.927734	1158098.750000
-19.589040	8.375501	1470.890625	1160587.000000
-19.589040	8.375501	1469.853516	1160813.625000
-19.589040	8.375501	1468.816406	1165268.125000
-19.589040	8.375501	1467.778320	1165704.375000
-19.589040	8.375501	1466.741211	1169134.125000
-19.589040	8.375501	1465.703125	1170602.375000
-19.589040	8.375501	1464.664062	1177607.000000
-19.589040	8.375501	1463.625977	1180877.750000
-19.589040	8.375501	1462.586914	1181364.125000
-19.589040	8.375501	1461.547852	1180529.125000
-19.589040	8.375501	1460.508789	1185056.000000
-19.589040	8.375501	1459.469727	1189689.875000
-19.589040	8.375501	1458.429688	1193980.750000
-19.589040	8.375501	1457.389648	1195206.250000
-19.589040	8.375501	1456.349609	1200097.000000
-19.589040	8.375501	1455.309570	1201289.625000
-19.589040	8.375501	1454.269531	1208765.625000
-19.589040	8.375501	1453.228516	1211513.250000
-19.589040	8.375501	1452.187500	1218430.625000
-19.589040	8.375501	1451.146484	1225170.000000
-19.589040	8.375501	1450.104492	1226891.625000
-19.589040	8.375501	1449.063477	1233942.500000
-19.589040	8.375501	1448.021484	1234010.750000
-19.589040	8.375501	1446.979492	1237291.750000
-19.589040	8.375501	1445.936523	1244274.125000
-19.589040	8.375501	1444.894531	1250793.250000
-19.589040	8.375501	1443.851562	1252999.375000
-19.589040	8.375501	1442.808594	1257843.750000
-19.589040	8.375501	1441.765625	1256854.500000
-19.589040	8.375501	1440.721680	1265413.500000
-19.589040	8.375501	1439.677734	1268321.250000
-19.589040	8.375501	1438.633789	1270393.500000
-19.589040	8.375501	1437.589844	1270897.875000
-19.589040	8.375501	1436.545898	1278393.125000
-19.589040	8.375501	1435.500977	1279192.125000
-19.589040	8.375501	1434.456055	1281415.125000
-19.589040	8.375501	1433.411133	1284679.750000
-19.589040	8.375501	1432.366211	1283817.375000
-19.589040	8.375501	1431.320312	1288070.500000
-19.589040	8.375501	1430.274414	1291853.625000
-19.589040	8.375501	1429.228516	1297241.250000
-19.589040	8.375501	1428.182617	1299101.625000
-19.589040	8.375501	1427.135742	1300157.125000
-19.589040	8.375501	1426.089844	1304742.375000
-19.589040	8.375501	1425.042969	1307997.750000
-19.589040	8.375501	1423.995117	1313135.875000
-19.589040	8.375501	1422.948242	1309132.250000
-19.589040	8.375501	1421.900391	1317949.750000
-19.589040	8.375501	1420.852539	1319687.000000
-19.589040	8.375501	1419.804688	1325815.125000
-19.589040	8.375501	1418.756836	1328622.250000
-19.589040	8.375501	1417.708008	1334388.875000
-19.589040	8.375501	1416.659180	1335538.875000
-19.589040	8.375501	1415.610352	1341123.125000
-19.589040	8.375501	1414.561523	1342381.000000
-19.589040	8.375501	1413.511719	1342487.250000
-19.589040	8.375501	1412.461914	1346753.500000
-19.589040	8.375501	1411.412109	1348693.125000
-19.589040	8.375501	1410.362305	1350990.375000
-19.589040	8.375501	1409.312500	1358999.125000
-19.589040	8.375501	1408.261719	1357129.250000
-19.589040	8.375501	1407.210938	1362447.625000
-19.589040	8.375501	1406.160156	1361879.000000
-19.589040	8.375501	1405.108398	1369433.250000
-19.589040	8.375501	1404.057617	1371071.750000
-19.589040	8.375501	1403.005859	1373563.250000
-19.589040	8.375501	1401.954102	1373719.500000
-19.589040	8.375501	1400.901367	1375800.000000
-19.589040	8.375501	1399.849609	1384978.625000
-19.589040	8.375501	1398.796875	1391818.375000
-19.589040	8.375501	1397.744141	1389792.375000
-19.589040	8.375501	1396.690430	1396756.375000
-19.589040	8.375501	1395.637695	1396301.750000
-19.589040	8.375501	1394.583984	1402263.875000
-19.589040	8.375501	1393.530273	1404093.500000
-19.589040	8.375501	1392.476562	1406944.500000
-19.589040	8.375501	1391.421875	1406870.250000
-19.589040	8.375501	1390.368164	1413627.000000
-19.589040	8.375501	1389.313477	1415540.625000
-19.589040	8.375501	1388.257812	1419626.750000
-19.589040	8.375501	1387.203125	1422102.250000
-19.589040	8.375501	1386.147461	1418809.625000
-19.589040	8.375501	1385.091797	1421181.375000
-19.589040	8.375501	1384.036133	1422559.500000
-19.589040	8.375501	1382.980469	1424596.000000
-19.589040	8.375501	1381.923828	1421738.375000
-19.589040	8.375501	1380.867188	1425916.125000
-19.589040	8.375501	1379.810547	1426579.000000
-19.589040	8.375501	1378.753906	1431200.500000
-19.589040	8.375501	1377.696289	1436001.250000
-19.589040	8.375501	1376.638672	1433250.625000
-19.589040	8.375501	1375.581055	1432975.875000
-19.589040	8.375501	1374.523438	1430550.000000
-19.589040	8.375501	1373.465820	1436097.125000
-19.589040	8.375501	1372.407227	1430780.000000
-19.589040	8.375501	1371.348633	1434665.125000
-19.589040	8.375501	1370.290039	1432723.875000
-19.589040	8.375501	1369.230469	1430813.500000
-19.589040	8.375501	1368.170898	1433039.750000
-19.589040	8.375501	1367.111328	1431970.375000
-19.589040	8.375501	1366.051758	1432978.875000
-19.589040	8.375501	1364.992188	1433160.625000
-19.589040	8.375501	1363.931641	1432022.000000
-19.589040	8.375501	1362.871094	1430547.250000
-19.589040	8.375501	1361.810547	1430981.750000
-19.589040	8.375501	1360.750000	1431249.000000
-19.589040	8.375501	1359.688477	1428507.000000
-19.589040	8.375501	1358.626953	1429203.250000
-19.589040	8.375501	1357.565430	1430003.250000
-19.589040	8.375501	1356.503906	1429524.000000
-19.589040	8.375501	1355.441406	1427493.000000
-19.589040	8.375501	1354.378906	1422125.750000
-19.589040	8.375501	1353.316406	1416758.500000
-19.589040	8.375501	1352.253906	1413411.875000
-19.589040	8.375501	1351.191406	1408349.500000
-19.589040	8.375501	1350.127930	1406093.375000
-19.589040	8.375501	1349.064453	1399834.000000
-19.589040	8.375501	1348.000000	1394049.125000
-19.589040	8.375501	1346.936523	1396338.250000
-19.589040	8.375501	1345.872070	1392065.875000
-19.589040	8.375501	1344.807617	1385474.875000
-19.589040	8.375501	1343.743164	1379614.500000
-19.589040	8.375501	1342.678711	1373181.375000
-19.589040	8.375501	1341.613281	1372083.750000
-19.589040	8.375501	1340.547852	1366587.750000
-19.589040	8.375501	1339.482422	1363372.625000
-19.589040	8.375501	1338.416016	1351974.375000
-19.589040	8.375501	1337.350586	1353041.750000
-19.589040	8.375501	1336.284180	1348329.500000
-19.589040	8.375501	1335.217773	1344022.750000
-19.589040	8.375501	1334.150391	1335786.125000
-19.589040	8.375501	1333.083984	1335525.375000
-19.589040	8.375501	1332.016602	1331542.000000
-19.589040	8.375501	1330.949219	1335402.375000
-19.589040	8.375501	1329.880859	1331077.375000
-19.589040	8.375501	1328.813477	1331109.875000
-19.589040	8.375501	1327.745117	1325635.875000
-19.589040	8.375501	1326.676758	1320035.375000
-19.589040	8.375501	1325.607422	1312876.375000
-19.589040	8.375501	1324.539062	1299739.250000
-19.589040	8.375501	1323.469727	1285395.250000
-19.589040	8.375501	1322.400391	1271324.250000
-19.589040	8.375501	1321.331055	1259257.875000
-19.589040	8.375501	1320.260742	1249880.250000
-19.589040	8.375501	1319.190430	1240508.875000
-19.589040	8.375501	1318.120117	1229684.375000
-19.589040	8.375501	1317.049805	1220790.125000
-19.589040	8.375501	1315.978516	1215731.750000
-19.589040	8.375501	1314.908203	1208739.250000
-19.589040	8.375501	1313.836914	1203990.875000
-19.589040	8.375501	1312.764648	1192756.625000
-19.589040	8.375501	1311.693359	1186510.250000
-19.589040	8.375501	1310.621094	1181719.125000
-19.589040	8.375501	1309.548828	1176902.500000
-19.589040	8.375501	1308.476562	1171214.000000
-19.589040	8.375501	1307.404297	1163938.750000
-19.589040	8.375501	1306.331055	1156178.250000
-19.589040	8.375501	1305.257812	1154004.875000
-19.589040	8.375501	1304.184570	1148248.125000
-19.589040	8.375501	1303.110352	1140060.625000
-19.589040	8.375501	1302.037109	1130907.750000
-19.589040	8.375501	1300.962891	1124745.125000
-19.589040	8.375501	1299.887695	1121154.125000
-19.589040	8.375501	1298.813477	1110257.750000
-19.589040	8.375501	1297.738281	1105611.750000
-19.589040	8.375501	1296.663086	1100622.250000
-19.589040	8.375501	1295.587891	1097938.500000
-19.589040	8.375501	1294.512695	1096804.125000
-19.589040	8.375501	1293.436523	1093539.125000
-19.589040	8.375501	1292.360352	1091432.250000
-19.589040	8.375501	1291.284180	1086606.375000
-19.589040	8.375501	1290.208008	1081697.875000
-19.589040	8.375501	1289.130859	1082551.000000
-19.589040	8.375501	1288.053711	1078159.375000
-19.589040	8.375501	1286.976562	1073299.250000
-19.589040	8.375501	1285.899414	1066979.875000
-19.589040	8.375501	1284.821289	1063007.500000
-19.589040	8.375501	1283.743164	1060798.625000
-19.589040	8.375501	1282.665039	1055412.375000
-19.589040	8.375501	1281.586914	1047117.812500
-19.589040	8.375501	1280.507812	1042756.187500
-19.589040	8.375501	1279.429688	1039121.500000
-19.589040	8.375501	1278.349609	1036466.187500
-19.589040	8.375501	1277.270508	1029953.625000
-19.589040	8.375501	1276.190430	1026763.687500
-19.589040	8.375501	1275.111328	1024509.000000
-19.589040	8.375501	1274.031250	1024778.562500
-19.589040	8.375501	1272.950195	1021313.812500
-19.589040	8.375501	1271.870117	1019214.062500
-19.589040	8.375501	1270.789062	1017581.750000
-19.589040	8.375501	1269.708008	1017028.562500
-19.589040	8.375501	1268.625977	1015581.500000
-19.589040	8.375501	1267.544922	1013154.750000
-19.589040	8.375501	1266.462891	1011179.250000
-19.589040	8.375501	1265.380859	1007738.125000
-19.589040	8.375501	1264.298828	1007032.750000
-19.589040	8.375501	1263.215820	1005511.812500
-19.589040	8.375501	1262.132812	1004300.437500
-19.589040	8.375501	1261.049805	1003348.437500
-19.589040	8.375501	1259.966797	1001275.000000
-19.589040	8.375501	1258.882812	997694.875000
-19.589040	8.375501	1257.799805	994933.375000
-19.589040	8.375501	1256.715820	992236.625000
-19.589040	8.375501	1255.630859	988787.687500
-19.589040	8.375501	1254.546875	985585.187500
-19.589040	8.375501	1253.461914	983989.625000
-19.589040	8.375501	1252.376953	986589.125000
-19.589040	8.375501	1251.291016	986802.687500
-19.589040	8.375501	1250.206055	985622.375000
-19.589040	8.375501	1249.120117	984322.375000
-19.589040	8.375501	1248.034180	979219.625000
-19.589040	8.375501	1246.948242	977006.500000
-19.589040	8.375501	1245.861328	974667.500000
-19.589040	8.375501	1244.774414	978491.250000
-19.589040	8.375501	1243.687500	976607.687500
-19.589040	8.375501	1242.600586	974684.187500
-19.589040	8.375501	1241.513672	977367.187500
-19.589040	8.375501	1240.425781	979067.312500
-19.589040	8.375501	1239.337891	978887.625000
-19.589040	8.375501	1238.249023	978805.062500
-19.589040	8.375501	1237.161133	976814.937500
-19.589040	8.375501	1236.072266	975340.750000
-19.589040	8.375501	1234.983398	976492.312500
-19.589040	8.375501	1233.894531	980026.000000
-19.589040	8.375501	1232.804688	981047.062500
-19.589040	8.375501	1231.714844	978940.750000
-19.589040	8.375501	1230.625000	980171.312500
-19.589040	8.375501	1229.535156	983770.562500
-19.589040	8.375501	1228.444336	986348.375000
-19.589040	8.375501	1227.353516	984440.937500
-19.589040	8.375501	1226.262695	984191.687500
-19.589040	8.375501	1225.171875	979832.500000
-19.589040	8.375501	1224.080078	979557.125000
-19.589040	8.375501	1222.989258	977283.000000
-19.589040	8.375501	1221.897461	973315.500000
-19.589040	8.375501	1220.804688	974262.375000
-19.589040	8.375501	1219.712891	975175.000000
-19.589040	8.375501	1218.620117	968767.562500
-19.589040	8.375501	1217.527344	974950.250000
-19.589040	8.375501	1216.433594	968613.125000
-19.589040	8.375501	1215.340820	968207.312500
-19.589040	8.375501	1214.247070	965302.437500
-19.589040	8.375501	1213.153320	965711.500000
-19.589040	8.375501	1212.058594	963231.062500
-19.589040	8.375501	1210.964844	960994.437500
-19.589040	8.375501	1209.870117	962021.937500
-19.589040	8.375501	1208.775391	960424.500000
-19.589040	8.375501	1207.679688	954651.687500
-19.589040	8.375501	1206.584961	954401.750000
-19.589040	8.375501	1205.489258	951697.687500
-19.589040	8.375501	1204.393555	953048.937500
-19.589040	8.375501	1203.296875	950373.125000
-19.589040	8.375501	1202.201172	950949.750000
-19.589040	8.375501	1201.104492	946579.437500
-19.589040	8.375501	1200.007812	950751.750000
-19.589040	8.375501	1198.910156	948757.937500
-19.589040	8.375501	1197.813477	950992.937500
-19.589040	8.375501	1196.715820	952765.187500
-19.589040	8.375501	1195.618164	954039.000000
-19.589040	8.375501	1194.519531	952061.562500
-19.589040	8.375501	1193.420898	951722.187500
-19.589040	8.375501	1192.322266	952191.312500
-19.589040	8.375501	1191.223633	954777.875000
-19.589040	8.375501	1190.125000	953916.375000
-19.589040	8.375501	1189.025391	954424.625000
-19.589040	8.375501	1187.925781	956254.750000
-19.589040	8.375501	1186.826172	954977.125000
-19.589040	8.375501	1185.725586	955875.875000
-19.589040	8.375501	1184.625977	952586.625000
-19.589040	8.375501	1183.525391	952184.437500
-19.589040	8.375501	1182.423828	949607.937500
-19.589040	8.375501	1181.323242	948263.562500
-19.589040	8.375501	1180.221680	946700.875000
-19.589040	8.375501	1179.120117	940402.250000
-19.589040	8.375501	1178.018555	938402.000000
-19.589040	8.375501	1176.916016	935373.500000
-19.589040	8.375501	1175.814453	932513.750000
-19.589040	8.375501	1174.711914	932825.625000
-19.589040	8.375501	1173.608398	928778.625000
-19.589040	8.375501	1172.505859	924706.625000
-19.589040	8.375501	1171.402344	922386.625000
-19.589040	8.375501	1170.298828	920792.000000
-19.589040	8.375501	1169.194336	920151.937500
-19.589040	8.375501	1168.090820	918734.437500
-19.589040	8.375501	1166.986328	918718.625000
-19.589040	8.375501	1165.881836	921408.562500
-19.589040	8.375501	1164.777344	926076.625000
-19.589040	8.375501	1163.671875	926421.750000
-19.589040	8.375501	1162.566406	931776.312500
-19.589040	8.375501	1161.460938	939144.125000
-19.589040	8.375501	1160.354492	942635.687500
-19.589040	8.375501	1159.249023	947499.937500
-19.589040	8.375501	1158.142578	951708.187500
-19.589040	8.375501	1157.036133	954760.687500
-19.589040	8.375501	1155.928711	950293.062500
-19.589040	8.375501	1154.822266	949109.250000
-19.589040	8.375501	1153.714844	941665.750000
-19.589040	8.375501	1152.606445	937828.000000
-19.589040	8.375501	1151.499023	932346.562500
-19.589040	8.375501	1150.390625	924705.312500
-19.589040	8.375501	1149.282227	922844.625000
-19.589040	8.375501	1148.173828	918861.250000
-19.589040	8.375501	1147.064453	918684.125000
-19.589040	8.375501	1145.956055	920913.500000
-19.589040	8.375501	1144.846680	916048.250000
-19.589040	8.375501	1143.736328	918210.500000
-19.589040	8.375501	1142.626953	918556.437500
-19.589040	8.375501	1141.516602	914787.187500
-19.589040	8.375501	1140.406250	908472.000000
-19.589040	8.375501	1139.295898	901767.500000
-19.589040	8.375501	1138.184570	898883.625000
-19.589040	8.375501	1137.073242	892509.687500
-19.589040	8.375501	1135.961914	892012.812500
-19.589040	8.375501	1134.850586	889099.625000
-19.589040	8.375501	1133.738281	885433.312500
-19.589040	8.375501	1132.625977	885652.562500
-19.589040	8.375501	1131.513672	882959.375000
-19.589040	8.375501	1130.400391	880499.375000
-19.589040	8.375501	1129.288086	881444.312500
-19.589040	8.375501	1128.174805	879600.000000
-19.589040	8.375501	1127.061523	876106.125000
-19.589040	8.375501	1125.947266	876962.812500
-19.589040	8.375501	1124.833008	875571.062500
-19.589040	8.375501	1123.718750	873978.875000
-19.589040	8.375501	1122.604492	875826.312500
-19.589040	8.375501	1121.490234	875887.500000
-19.589040	8.375501	1120.375000	875123.500000
-19.589040	8.375501	1119.259766	873111.312500
-19.589040	8.375501	1118.144531	873188.250000
-19.589040	8.375501	1117.028320	874885.562500
-19.589040	8.375501	1115.912109	875570.312500
-19.589040	8.375501	1114.795898	874106.062500
-19.589040	8.375501	1113.679688	877361.625000
-19.589040	8.375501	1112.562500	873238.812500
-19.589040	8.375501	1111.445312	873216.062500
-19.589040	8.375501	1110.328125	871652.062500
-19.589040	8.375501	1109.210938	871061.625000
-19.589040	8.375501	1108.092773	868118.875000
-19.589040	8.375501	1106.974609	865316.000000
-19.589040	8.375501	1105.856445	864949.375000
-19.589040	8.375501	1104.737305	862744.312500
-19.589040	8.375501	1103.619141	860368.687500
-19.589040	8.375501	1102.500000	860275.750000
-19.589040	8.375501	1101.379883	857826.937500
-19.589040	8.375501	1100.260742	857090.750000
-19.589040	8.375501	1099.140625	853898.937500
-19.589040	8.375501	1098.020508	854369.500000
-19.589040	8.375501	1096.900391	852670.437500
-19.589040	8.375501	1095.779297	852067.500000
-19.589040	8.375501	1094.658203	849873.625000
-19.589040	8.375501	1093.537109	849223.125000
-19.589040	8.375501	1092.416016	849636.750000
-19.589040	8.375501	1091.293945	847591.687500
-19.589040	8.375501	1090.171875	846689.812500
-19.589040	8.375501	1089.049805	845487.937500
-19.589040	8.375501	1087.926758	844354.500000
-19.589040	8.375501	1086.804688	842196.125000
-19.589040	8.375501	1085.681641	842658.500000
-19.589040	8.375501	1084.557617	841937.937500
-19.589040	8.375501	1083.434570	838844.250000
-19.589040	8.375501	1082.310547	839451.312500
-19.589040	8.375501	1081.186523	835153.625000
-19.589040	8.375501	1080.062500	836796.000000
-19.589040	8.375501	1078.937500	836589.187500
-19.589040	8.375501	1077.812500	836146.125000
-19.589040	8.375501	1076.687500	836175.500000
-19.589040	8.375501	1075.562500	833443.875000
-19.589040	8.375501	1074.436523	835873.312500
-19.589040	8.375501	1073.310547	836391.937500
-19.589040	8.375501	1072.184570	837183.250000
-19.589040	8.375501	1071.058594	837419.437500
-19.589040	8.375501	1069.931641	836727.500000
-19.589040	8.375501	1068.804688	834230.500000
-19.589040	8.375501	1067.677734	832531.125000
-19.589040	8.375501	1066.549805	837205.812500
-19.589040	8.375501	1065.421875	831335.625000
-19.589040	8.375501	1064.293945	830065.375000
-19.589040	8.375501	1063.166016	830212.875000
-19.589040	8.375501	1062.038086	829418.500000
-19.589040	8.375501	1060.909180	829814.375000
-19.589040	8.375501	1059.780273	827015.750000
-19.589040	8.375501	1058.650391	828006.562500
-19.589040	8.375501	1057.520508	826461.750000
-19.589040	8.375501	1056.391602	824756.500000
-19.589040	8.375501	1055.260742	827710.375000
-19.589040	8.375501	1054.130859	828382.062500
-19.589040	8.375501	1053.000000	832129.937500
-19.589040	8.375501	1051.869141	828399.375000
-19.589040	8.375501	1050.738281	827534.750000
-19.589040	8.375501	1049.606445	831158.250000
-19.589040	8.375501	1048.474609	830128.000000
-19.589040	8.375501	1047.342773	828596.125000
-19.589040	8.375501	1046.210938	826150.187500
-19.589040	8.375501	1045.078125	827254.750000
-19.589040	8.375501	1043.946289	825972.000000
-19.589040	8.375501	1042.812500	824225.125000
-19.589040	8.375501	1041.679688	820332.062500
-19.589040	8.375501	1040.545898	822953.687500
-19.589040	8.375501	1039.412109	817845.375000
-19.589040	8.375501	1038.278320	818505.187500
-19.589040	8.375501	1037.143555	816952.500000
-19.589040	8.375501	1036.009766	816465.125000
-19.589040	8.375501	1034.875000	814356.375000
-19.589040	8.375501	1033.739258	815365.062500
-19.589040	8.375501	1032.604492	816706.875000
-19.589040	8.375501	1031.468750	817924.500000
-19.589040	8.375501	1030.333008	814619.437500
-19.589040	8.375501	1029.196289	812688.625000
-19.589040	8.375501	1028.060547	811475.125000
-19.589040	8.375501	1026.923828	813054.000000
-19.589040	8.375501	1025.786133	814374.500000
-19.589040	8.375501	1024.649414	810950.500000
-19.589040	8.375501	1023.511719	811330.000000
-19.589040	8.375501	1022.374023	812539.500000
-19.589040	8.375501	1021.236328	812198.437500
-19.589040	8.375501	1020.097656	812856.000000
-19.589040	8.375501	1018.958984	813288.375000
-19.589040	8.375501	1017.820312	811903.812500
-19.589040	8.375501	1016.681641	812698.937500
-19.589040	8.375501	1015.541992	813765.687500
-19.589040	8.375501	1014.402344	813925.187500
-19.589040	8.375501	1013.262695	813163.062500
-19.589040	8.375501	1012.122070	814884.625000
-19.589040	8.375501	1010.982422	817054.000000
-19.589040	8.375501	1009.841797	819297.750000
-19.589040	8.375501	1008.700195	818797.812500
-19.589040	8.375501	1007.559570	819580.625000
-19.589040	8.375501	1006.417969	822013.812500
-19.589040	8.375501	1005.276367	824290.625000
-19.589040	8.375501	1004.133789	821260.750000
-19.589040	8.375501	1002.992188	825931.375000
-19.589040	8.375501	1001.849609	826607.875000
-19.589040	8.375501	1000.706055	821551.625000
-19.589040	8.375501	999.563477	821772.437500
-19.589040	8.375501	998.419922	823497.062500
-19.589040	8.375501	997.276367	820905.687500
-19.589040	8.375501	996.132812	821461.812500
-19.589040	8.375501	994.988281	819768.562500
-19.589040	8.375501	993.843750	822566.500000
-19.589040	8.375501	992.699219	821318.562500
-19.589040	8.375501	991.554688	822505.375000
-19.589040	8.375501	990.409180	822407.062500
-19.589040	8.375501	989.263672	825661.062500
-19.589040	8.375501	988.118164	826216.750000
-19.589040	8.375501	986.971680	823241.062500
-19.589040	8.375501	985.825195	828528.937500
-19.589040	8.375501	984.678711	822839.812500
-19.589040	8.375501	983.532227	822333.562500
-19.589040	8.375501	982.384766	818029.500000
-19.589040	8.375501	981.237305	817970.437500
-19.589040	8.375501	980.089844	813249.125000
-19.589040	8.375501	978.942383	814059.000000
-19.589040	8.375501	977.793945	814735.562500
-19.589040	8.375501	976.645508	813685.312500
-19.589040	8.375501	975.497070	812421.312500
-19.589040	8.375501	974.347656	811703.750000
-19.589040	8.375501	973.198242	810036.125000
-19.589040	8.375501	972.048828	810241.687500
-19.589040	8.375501	970.899414	808423.062500
-19.589040	8.375501	969.749023	811422.312500
-19.589040	8.375501	968.598633	809306.937500
-19.589040	8.375501	967.448242	811985.875000
-19.589040	8.375501	966.297852	810826.687500
-19.589040	8.375501	965.146484	814159.875000
-19.589040	8.375501	963.995117	810302.187500
-19.589040	8.375501	962.842773	809289.187500
-19.589040	8.375501	961.691406	810350.187500
-19.589040	8.375501	960.539062	809098.437500
-19.589040	8.375501	959.386719	809127.937500
-19.589040	8.375501	958.233398	808054.000000
-19.589040	8.375501	957.081055	809079.875000
-19.589040	8.375501	955.927734	808221.812500
-19.589040	8.375501	954.773438	809888.875000
-19.589040	8.375501	953.620117	810152.312500
-19.589040	8.375501	952.465820	809874.125000
-19.589040	8.375501	951.311523	808796.875000
-19.589040	8.375501	950.156250	807264.125000
-19.589040	8.375501	949.001953	807885.500000
-19.589040	8.375501	947.846680	807258.562500
-19.589040	8.375501	946.690430	808000.812500
-19.589040	8.375501	945.535156	807440.062500
-19.589040	8.375501	944.378906	808535.000000
-19.589040	8.375501	943.222656	805855.250000
-19.589040	8.375501	942.066406	806290.562500
-19.589040	8.375501	940.909180	805300.937500
-19.589040	8.375501	939.751953	809503.187500
-19.589040	8.375501	938.594727	808234.687500
-19.589040	8.375501	937.437500	807310.875000
-19.589040	8.375501	936.279297	807196.937500
-19.589040	8.375501	935.121094	808208.625000
-19.589040	8.375501	933.962891	808336.375000
-19.589040	8.375501	932.803711	809652.937500
-19.589040	8.375501	931.644531	808948.187500
-19.589040	8.375501	930.485352	810386.875000
-19.589040	8.375501	929.326172	811689.000000
-19.589040	8.375501	928.166016	811645.812500
-19.589040	8.375501	927.005859	812189.937500
-19.589040	8.375501	925.845703	814215.562500
-19.589040	8.375501	924.684570	816204.125000
-19.589040	8.375501	923.523438	817297.562500
-19.589040	8.375501	922.362305	818816.125000
-19.589040	8.375501	921.201172	820702.437500
-19.589040	8.375501	920.039062	822181.312500
-19.589040	8.375501	918.876953	822232.562500
-19.589040	8.375501	917.714844	826343.000000
-19.589040	8.375501	916.551758	824520.500000
-19.589040	8.375501	915.389648	826508.687500
-19.589040	8.375501	914.226562	824528.250000
-19.589040	8.375501	913.062500	822872.187500
-19.589040	8.375501	911.899414	822662.812500
-19.589040	8.375501	910.735352	818556.250000
-19.589040	8.375501	909.570312	817432.937500
-19.589040	8.375501	908.406250	818779.500000
-19.589040	8.375501	907.241211	816934.250000
-19.589040	8.375501	906.076172	817803.000000
-19.589040	8.375501	904.911133	816484.312500
-19.589040	8.375501	903.745117	816282.625000
-19.589040	8.375501	902.579102	815956.500000
-19.589040	8.375501	901.413086	814847.812500
-19.589040	8.375501	900.247070	814914.312500
-19.589040	8.375501	899.080078	815328.562500
-19.589040	8.375501	897.913086	813459.687500
-19.589040	8.375501	896.746094	813469.312500
-19.589040	8.375501	895.578125	813434.687500
-19.589040	8.375501	894.410156	812843.875000
-19.589040	8.375501	893.242188	812944.062500
-19.589040	8.375501	892.073242	812359.812500
-19.589040	8.375501	890.905273	813752.312500
-19.589040	8.375501	889.736328	814075.062500
-19.589040	8.375501	888.566406	814462.812500
-19.589040	8.375501	887.397461	812645.937500
-19.589040	8.375501	886.227539	812932.750000
-19.589040	8.375501	885.057617	813675.625000
-19.589040	8.375501	883.886719	812084.875000
-19.589040	8.375501	882.716797	810179.625000
-19.589040	8.375501	881.545898	811727.125000
-19.589040	8.375501	880.374023	810249.125000
-19.589040	8.375501	879.203125	811367.312500
-19.589040	8.375501	878.031250	812524.812500
-19.589040	8.375501	876.859375	811236.375000
-19.589040	8.375501	875.686523	813003.875000
-19.589040	8.375501	874.514648	811212.312500
-19.589040	8.375501	873.341797	813731.812500
-19.589040	8.375501	872.167969	811477.375000
-19.589040	8.375501	870.995117	810282.687500
-19.589040	8.375501	869.821289	810526.312500
-19.589040	8.375501	868.647461	810885.000000
-19.589040	8.375501	867.472656	809638.750000
-19.589040	8.375501	866.298828	809316.625000
-19.589040	8.375501	865.124023	809851.062500
-19.589040	8.375501	863.948242	809792.750000
-19.589040	8.375501	862.773438	809824.375000
-19.589040	8.375501	861.597656	808935.187500
-19.589040	8.375501	860.421875	811332.937500
-19.589040	8.375501	859.245117	808833.312500
-19.589040	8.375501	858.069336	808440.375000
-19.589040	8.375501	856.892578	809550.687500
-19.589040	8.375501	855.715820	812629.187500
-19.589040	8.375501	854.538086	811631.625000
-19.589040	8.375501	853.360352	808821.187500
-19.589040	8.375501	852.182617	809756.750000
-19.589040	8.375501	851.004883	814203.875000
-19.589040	8.375501	849.826172	811609.687500
-19.589040	8.375501	848.647461	812282.812500
-19.589040	8.375501	847.468750	811478.375000
-19.589040	8.375501	846.289062	813959.687500
-19.589040	8.375501	845.109375	811834.937500
-19.589040	8.375501	843.929688	813097.250000
-19.589040	8.375501	842.750000	812178.437500
-19.589040	8.375501	841.569336	811749.812500
-19.589040	8.375501	840.388672	813800.687500
-19.589040	8.375501	839.207031	815027.750000
-19.589040	8.375501	838.026367	813721.750000
-19.589040	8.375501	836.844727	815751.812500
-19.589040	8.375501	835.663086	814729.250000
-19.589040	8.375501	834.480469	813559.375000
-19.589040	8.375501	833.298828	815076.000000
-19.589040	8.375501	832.116211	815119.187500
-19.589040	8.375501	830.932617	814675.625000
-19.589040	8.375501	829.750000	815190.687500
-19.589040	8.375501	828.566406	817958.625000
-19.589040	8.375501	827.382812	820089.312500
-19.589040	8.375501	826.198242	819752.812500
-19.589040	8.375501	825.013672	819422.625000
-19.589040	8.375501	823.829102	817964.937500
-19.589040	8.375501	822.644531	819356.312500
-19.589040	8.375501	821.458984	820508.312500
-19.589040	8.375501	820.273438	821425.187500
-19.589040	8.375501	819.087891	822430.750000
-19.589040	8.375501	817.902344	819401.625000
-19.589040	8.375501	816.715820	820759.625000
-19.589040	8.375501	815.529297	822409.187500
-19.589040	8.375501	814.342773	821672.312500
-19.589040	8.375501	813.155273	821994.625000
-19.589040	8.375501	811.967773	823290.375000
-19.589040	8.375501	810.780273	824624.812500
-19.589040	8.375501	809.591797	823076.187500
-19.589040	8.375501	808.403320	824012.437500
-19.589040	8.375501	807.214844	822328.000000
-19.589040	8.375501	806.026367	822870.687500
-19.589040	8.375501	804.836914	825525.312500
-19.589040	8.375501	803.647461	825955.187500
-19.589040	8.375501	802.458008	825398.562500
-19.589040	8.375501	801.267578	827905.750000
-19.589040	8.375501	800.078125	825000.937500
-19.589040	8.375501	798.887695	826806.500000
-19.589040	8.375501	797.696289	824739.812500
-19.589040	8.375501	796.504883	828089.250000
-19.589040	8.375501	795.313477	826029.375000
-19.589040	8.375501	794.122070	828037.125000
-19.589040	8.375501	792.929688	827020.312500
-19.589040	8.375501	791.738281	828300.437500
-19.589040	8.375501	790.544922	830351.375000
-19.589040	8.375501	789.352539	829291.250000
-19.589040	8.375501	788.159180	826099.750000
-19.589040	8.375501	786.965820	828539.125000
-19.589040	8.375501	785.772461	826509.437500
-19.589040	8.375501	784.578125	827525.812500
-19.589040	8.375501	783.383789	826500.375000
-19.589040	8.375501	782.189453	828469.625000
-19.589040	8.375501	780.995117	830349.375000
-19.589040	8.375501	779.799805	826989.625000
-19.589040	8.375501	778.604492	830280.437500
-19.589040	8.375501	777.408203	832687.000000
-19.589040	8.375501	776.212891	831215.125000
-19.589040	8.375501	775.016602	829497.062500
-19.589040	8.375501	773.819336	833604.250000
-19.589040	8.375501	772.623047	829654.187500
-19.589040	8.375501	771.425781	834813.437500
-19.589040	8.375501	770.228516	834369.750000
-19.589040	8.375501	769.031250	832504.812500
-19.589040	8.375501	767.833008	836248.812500
-19.589040	8.375501	766.634766	834684.000000
-19.589040	8.375501	765.435547	836089.812500
-19.589040	8.375501	764.237305	835129.000000
-19.589040	8.375501	763.038086	839449.125000
-19.589040	8.375501	761.838867	841070.062500
-19.589040	8.375501	760.638672	841744.875000
-19.589040	8.375501	759.439453	844245.875000
-19.589040	8.375501	758.238281	847524.500000
-19.589040	8.375501	757.038086	851848.625000
-19.589040	8.375501	755.836914	852915.375000
-19.589040	8.375501	754.636719	851974.437500
-19.589040	8.375501	753.434570	853054.875000
-19.589040	8.375501	752.233398	852734.500000
-19.589040	8.375501	751.031250	852514.500000
-19.589040	8.375501	749.829102	852705.875000
-19.589040	8.375501	748.625977	854230.875000
-19.589040	8.375501	747.423828	858841.187500
-19.589040	8.375501	746.220703	864753.812500
-19.589040	8.375501	745.016602	864201.812500
-19.589040	8.375501	743.813477	860786.875000
-19.589040	8.375501	742.609375	860148.125000
-19.589040	8.375501	741.405273	853902.437500
-19.589040	8.375501	740.200195	851672.625000
-19.589040	8.375501	738.996094	847144.812500
-19.589040	8.375501	737.790039	846156.625000
-19.589040	8.375501	736.584961	843138.250000
-19.589040	8.375501	735.378906	842298.312500
-19.589040	8.375501	734.173828	842915.125000
-19.589040	8.375501	732.966797	841188.375000
-19.589040	8.375501	731.760742	841595.062500
-19.589040	8.375501	730.553711	841104.625000
-19.589040	8.375501	729.346680	843286.000000
-19.589040	8.375501	728.138672	842265.562500
-19.589040	8.375501	726.931641	840577.500000
-19.589040	8.375501	725.723633	839926.687500
-19.589040	8.375501	724.514648	838960.562500
-19.589040	8.375501	723.306641	839161.187500
-19.589040	8.375501	722.097656	841366.062500
-19.589040	8.375501	720.888672	840481.500000
-19.589040	8.375501	719.678711	841521.500000
-19.589040	8.375501	718.468750	839842.187500
-19.589040	8.375501	717.258789	839088.625000
-19.589040	8.375501	716.048828	841384.125000
-19.589040	8.375501	714.837891	839254.750000
-19.589040	8.375501	713.626953	841847.625000
-19.589040	8.375501	712.416016	839767.875000
-26.935707	9.396118	1808.186523	635864.000000
-26.935707	9.396118	1807.220703	638764.437500
-26.935707	9.396118	1806.254883	637696.937500
-26.935707	9.396118	1805.288086	637996.687500
-26.935707	9.396118	1804.321289	636853.375000
-26.935707	9.396118	1803.354492	640593.125000
-26.935707	9.396118	1802.387695	639933.000000
-26.935707	9.396118	1801.419922	641768.125000
-26.935707	9.396118	1800.453125	642127.625000
-26.935707	9.396118	1799.485352	639118.562500
-26.935707	9.396118	1798.517578	643290.937500
-26.935707	9.396118	1797.548828	643291.562500
-26.935707	9.396118	1796.581055	643368.312500
-26.935707	9.396118	1795.612305	645642.250000
-26.935707	9.396118	1794.643555	644489.312500
-26.935707	9.396118	1793.674805	645446.750000
-26.935707	9.396118	1792.706055	646350.500000
-26.935707	9.396118	1791.736328	646667.500000
-26.935707	9.396118	1790.766602	647593.375000
-26.935707	9.396118	1789.796875	646892.687500
-26.935707	9.396118	1788.827148	647052.125000
-26.935707	9.396118	1787.857422	646372.000000
-26.935707	9.396118	1786.886719	650461.187500
-26.935707	9.396118	1785.916992	650736.250000
-26.935707	9.396118	1784.946289	651619.375000
-26.935707	9.396118	1783.974609	651430.375000
-26.935707	9.396118	1783.003906	652082.437500
-26.935707	9.396118	1782.032227	653395.250000
-26.935707	9.396118	1781.061523	655905.125000
-26.935707	9.396118	1780.089844	655882.375000
-26.935707	9.396118	1779.117188	658274.250000
-26.935707	9.396118	1778.145508	659999.562500
-26.935707	9.396118	1777.172852	660884.125000
-26.935707	9.396118	1776.200195	660794.437500
-26.935707	9.396118	1775.227539	659503.500000
-26.935707	9.396118	1774.254883	664873.062500
-26.935707	9.396118	1773.282227	662168.625000
-26.935707	9.396118	1772.308594	661939.625000
-26.935707	9.396118	1771.334961	664566.062500
-26.935707	9.396118	1770.361328	664983.312500
-26.935707	9.396118	1769.387695	665670.687500
-26.935707	9.396118	1768.413086	668122.875000
-26.935707	9.396118	1767.438477	668334.562500
-26.935707	9.396118	1766.463867	669381.625000
-26.935707	9.396118	1765.489258	670935.562500
-26.935707	9.396118	1764.514648	671201.937500
-26.935707	9.396118	1763.539062	671846.562500
-26.935707	9.396118	1762.564453	674208.437500
-26.935707	9.396118	1761.588867	674136.000000
-26.935707	9.396118	1760.612305	676541.750000
-26.935707	9.396118	1759.636719	677247.625000
-26.935707	9.396118	1758.660156	677834.750000
-26.935707	9.396118	1757.684570	677449.000000
-26.935707	9.396118	1756.708008	679325.500000
-26.935707	9.396118	1755.730469	682578.750000
-26.935707	9.396118	1754.753906	681054.125000
-26.935707	9.396118	1753.776367	684537.187500
-26.935707	9.396118	1752.798828	683536.187500
-26.935707	9.396118	1751.821289	685376.562500
-26.935707	9.396118	1750.843750	685696.562500
-26.935707	9.396118	1749.866211	688536.750000
-26.935707	9.396118	1748.887695	689195.375000
-26.935707	9.396118	1747.909180	689702.875000
-26.935707	9.396118	1746.930664	692060.187500
-26.935707	9.396118	1745.952148	692692.437500
-26.935707	9.396118	1744.972656	695206.437500
-26.935707	9.396118	1743.993164	695101.625000
-26.935707	9.396118	1743.013672	698794.437500
-26.935707	9.396118	1742.034180	697506.125000
-26.935707	9.396118	1741.054688	698505.437500
-26.935707	9.396118	1740.074219	701125.875000
-26.935707	9.396118	1739.094727	699265.562500
-26.935707	9.396118	1738.114258	702855.625000
-26.935707	9.396118	1737.132812	703055.187500
-26.935707	9.396118	1736.152344	706843.562500
-26.935707	9.396118	1735.170898	706986.937500
-26.935707	9.396118	1734.190430	705104.625000
-26.935707	9.396118	1733.208008	707396.250000
-26.935707	9.396118	1732.226562	708925.062500
-26.935707	9.396118	1731.245117	710237.750000
-26.935707	9.396118	1730.262695	712416.562500
-26.935707	9.396118	1729.280273	715405.812500
-26.935707	9.396118	1728.297852	716007.625000
-26.935707	9.396118	1727.315430	716421.437500
-26.935707	9.396118	1726.332031	718133.937500
-26.935707	9.396118	1725.349609	716763.000000
-26.935707	9.396118	1724.366211	720038.187500
-26.935707	9.396118	1723.382812	721978.875000
-26.935707	9.396118	1722.398438	722633.375000
-26.935707	9.396118	1721.415039	725787.687500
-26.935707	9.396118	1720.430664	727450.875000
-26.935707	9.396118	1719.446289	726739.187500
-26.935707	9.396118	1718.461914	728573.812500
-26.935707	9.396118	1717.476562	730869.750000
-26.935707	9.396118	1716.492188	731181.687500
-26.935707	9.396118	1715.506836	731196.312500
-26.935707	9.396118	1714.521484	734383.875000
-26.935707	9.396118	1713.536133	734038.312500
-26.935707	9.396118	1712.549805	737151.500000
-26.935707	9.396118	1711.564453	739971.500000
-26.935707	9.396118	1710.578125	740193.562500
-26.935707	9.396118	1709.591797	741295.875000
-26.935707	9.396118	1708.604492	742076.000000
-26.935707	9.396118	1707.618164	746457.937500
-26.935707	9.396118	1706.630859	745758.625000
-26.935707	9.396118	1705.643555	747900.187500
-26.935707	9.396118	1704.656250	748145.000000
-26.935707	9.396118	1703.668945	750740.937500
-26.935707	9.396118	1702.680664	751649.875000
-26.935707	9.396118	1701.692383	755638.125000
-26.935707	9.396118	1700.704102	757252.500000
-26.935707	9.396118	1699.715820	758156.812500
-26.935707	9.396118	1698.727539	758117.750000
-26.935707	9.396118	1697.738281	763887.312500
-26.935707	9.396118	1696.749023	765214.875000
-26.935707	9.396118	1695.759766	766544.312500
-26.935707	9.396118	1694.770508	769710.437500
-26.935707	9.396118	1693.780273	769154.250000
-26.935707	9.396118	1692.791016	769495.312500
-26.935707	9.396118	1691.800781	774544.437500
-26.935707	9.396118	1690.810547	774230.875000
-26.935707	9.396118	1689.819336	777381.875000
-26.935707	9.396118	1688.829102	780305.562500
-26.935707	9.396118	1687.837891	778186.125000
-26.935707	9.396118	1686.846680	783014.437500
-26.935707	9.396118	1685.855469	783061.500000
-26.935707	9.396118	1684.864258	788142.187500
-26.935707	9.396118	1683.872070	789443.125000
-26.935707	9.396118	1682.879883	788948.062500
-26.935707	9.396118	1681.887695	791393.625000
-26.935707	9.396118	1680.895508	792814.375000
-26.935707	9.396118	1679.903320	794970.562500
-26.935707	9.396118	1678.910156	795473.125000
-26.935707	9.396118	1677.916992	798477.375000
-26.935707	9.396118	1676.923828	799994.375000
-26.935707	9.396118	1675.930664	802060.375000
-26.935707	9.396118	1674.936523	805828.687500
-26.935707	9.396118	1673.942383	806786.125000
-26.935707	9.396118	1672.949219	810816.625000
-26.935707	9.396118	1671.954102	809417.062500
-26.935707	9.396118	1670.959961	811562.812500
-26.935707	9.396118	1669.964844	814936.687500
-26.935707	9.396118	1668.970703	816056.562500
-26.935707	9.396118	1667.975586	818402.125000
-26.935707	9.396118	1666.979492	818551.875000
-26.935707	9.396118	1665.984375	821014.437500
-26.935707	9.396118	1664.988281	821778.625000
-26.935707	9.396118	1663.993164	826689.562500
-26.935707	9.396118	1662.996094	823661.500000
-26.935707	9.396118	1662.000000	826192.312500
-26.935707	9.396118	1661.003906	826855.812500
-26.935707	9.396118	1660.006836	831250.500000
-26.935707	9.396118	1659.009766	831855.875000
-26.935707	9.396118	1658.012695	831937.937500
-26.935707	9.396118	1657.015625	834742.750000
-26.935707	9.396118	1656.017578	835544.062500
-26.935707	9.396118	1655.019531	835541.312500
-26.935707	9.396118	1654.021484	839324.437500
-26.935707	9.396118	1653.023438	840200.562500
-26.935707	9.396118	1652.025391	841573.937500
-26.935707	9.396118	1651.026367	842803.750000
-26.935707	9.396118	1650.027344	843291.750000
-26.935707	9.396118	1649.028320	846369.750000
-26.935707	9.396118	1648.029297	845350.125000
-26.935707	9.396118	1647.029297	846944.625000
-26.935707	9.396118	1646.029297	849099.500000
-26.935707	9.396118	1645.030273	847681.187500
-26.935707	9.396118	1644.029297	850553.062500
-26.935707	9.396118	1643.029297	853305.687500
-26.935707	9.396118	1642.028320	852934.625000
-26.935707	9.396118	1641.028320	855471.562500
-26.935707	9.396118	1640.027344	854650.312500
-26.935707	9.396118	1639.025391	858932.750000
-26.935707	9.396118	1638.024414	859137.812500
-26.935707	9.396118	1637.022461	862123.062500
-26.935707	9.396118	1636.020508	866747.187500
-26.935707	9.396118	1635.018555	864868.562500
-26.935707	9.396118	1634.016602	866876.062500
-26.935707	9.396118	1633.014648	869908.437500
-26.935707	9.396118	1632.011719	869963.437500
-26.935707	9.396118	1631.008789	871590.625000
-26.935707	9.396118	1630.005859	874060.750000
-26.935707	9.396118	1629.001953	874433.437500
-26.935707	9.396118	1627.999023	875668.750000
-26.935707	9.396118	1626.995117	877864.250000
-26.935707	9.396118	1625.991211	882398.812500
-26.935707	9.396118	1624.987305	880740.687500
-26.935707	9.396118	1623.982422	882181.625000
-26.935707	9.396118	1622.977539	884611.187500
-26.935707	9.396118	1621.973633	885649.062500
-26.935707	9.396118	1620.967773	887849.062500
-26.935707	9.396118	1619.962891	892218.875000
-26.935707	9.396118	1618.958008	895463.687500
-26.935707	9.396118	1617.952148	897148.812500
-26.935707	9.396118	1616.946289	899195.125000
-26.935707	9.396118	1615.940430	903230.937500
-26.935707	9.396118	1614.933594	902331.562500
-26.935707	9.396118	1613.927734	906325.750000
-26.935707	9.396118	1612.920898	908778.750000
-26.935707	9.396118	1611.914062	908377.000000
-26.935707	9.396118	1610.906250	910369.125000
-26.935707	9.396118	1609.899414	909857.187500
-26.935707	9.396118	1608.891602	912424.312500
-26.935707	9.396118	1607.883789	918336.937500
-26.935707	9.396118	1606.875977	918033.375000
-26.935707	9.396118	1605.868164	917066.125000
-26.935707	9.396118	1604.859375	919873.250000
-26.935707	9.396118	1603.850586	919227.875000
-26.935707	9.396118	1602.841797	923081.687500
-26.935707	9.396118	1601.833008	922611.312500
-26.935707	9.396118	1600.824219	922894.250000
-26.935707	9.396118	1599.814453	923942.187500
-26.935707	9.396118	1598.804688	924821.562500
-26.935707	9.396118	1597.794922	925040.312500
-26.935707	9.396118	1596.784180	929511.125000
-26.935707	9.396118	1595.774414	930824.375000
-26.935707	9.396118	1594.763672	931401.812500
-26.935707	9.396118	1593.752930	931302.312500
-26.935707	9.396118	1592.742188	933877.062500
-26.935707	9.396118	1591.730469	931363.562500
-26.935707	9.396118	1590.719727	934669.187500
-26.935707	9.396118	1589.708008	936453.437500
-26.935707	9.396118	1588.696289	937252.250000
-26.935707	9.396118	1587.684570	943981.687500
-26.935707	9.396118	1586.671875	944418.750000
-26.935707	9.396118	1585.659180	944235.937500
-26.935707	9.396118	1584.646484	949849.312500
-26.935707	9.396118	1583.633789	949784.312500
-26.935707	9.396118	1582.621094	949070.875000
-26.935707	9.396118	1581.607422	951440.937500
-26.935707	9.396118	1580.593750	951542.875000
-26.935707	9.396118	1579.580078	958230.687500
-26.935707	9.396118	1578.566406	956181.437500
-26.935707	9.396118	1577.551758	955840.687500
-26.935707	9.396118	1576.538086	958252.437500
-26.935707	9.396118	1575.523438	960185.500000
-26.935707	9.396118	1574.508789	964335.750000
-26.935707	9.396118	1573.493164	964470.625000
-26.935707	9.396118	1572.478516	967527.687500
-26.935707	9.396118	1571.462891	970498.500000
-26.935707	9.396118	1570.447266	969767.187500
-26.935707	9.396118	1569.430664	974000.187500
-26.935707	9.396118	1568.415039	974900.000000
-26.935707	9.396118	1567.398438	976390.000000
-26.935707	9.396118	1566.381836	979394.187500
-26.935707	9.396118	1565.365234	982912.375000
-26.935707	9.396118	1564.348633	983671.375000
-26.935707	9.396118	1563.331055	987677.937500
-26.935707	9.396118	1562.313477	989953.937500
-26.935707	9.396118	1561.295898	992315.875000
-26.935707	9.396118	1560.278320	994309.375000
-26.935707	9.396118	1559.260742	998732.875000
-26.935707	9.396118	1558.242188	1004939.750000
-26.935707	9.396118	1557.223633	1008223.687500
-26.935707	9.396118	1556.205078	1009431.812500
-26.935707	9.396118	1555.185547	1014420.250000
-26.935707	9.396118	1554.166992	1020434.750000
-26.935707	9.396118	1553.147461	1022829.000000
-26.935707	9.396118	1552.127930	1021728.500000
-26.935707	9.396118	1551.108398	1023559.250000
-26.935707	9.396118	1550.087891	1024745.250000
-26.935707	9.396118	1549.068359	1026159.687500
-26.935707	9.396118	1548.047852	1028202.687500
-26.935707	9.396118	1547.027344	1028685.312500
-26.935707	9.396118	1546.005859	1028348.312500
-26.935707	9.396118	1544.985352	1029403.937500
-26.935707	9.396118	1543.963867	1035500.437500
-26.935707	9.396118	1542.942383	1034945.250000
-26.935707	9.396118	1541.920898	1035071.562500
-26.935707	9.396118	1540.898438	1044619.375000
-26.935707	9.396118	1539.875977	1048189.750000
-26.935707	9.396118	1538.853516	1054328.250000
-26.935707	9.396118	1537.831055	1061948.375000
-26.935707	9.396118	1536.808594	1068292.875000
-26.935707	9.396118	1535.785156	1073081.125000
-26.935707	9.396118	1534.762695	1080709.000000
-26.935707	9.396118	1533.738281	1083454.125000
-26.935707	9.396118	1532.714844	1089435.000000
-26.935707	9.396118	1531.691406	1098406.875000
-26.935707	9.396118	1530.666992	1102863.750000
-26.935707	9.396118	1529.642578	1106747.000000
-26.935707	9.396118	1528.618164	1116235.000000
-26.935707	9.396118	1527.593750	1119499.125000
-26.935707	9.396118	1526.568359	1121326.500000
-26.935707	9.396118	1525.542969	1121581.500000
-26.935707	9.396118	1524.517578	1124239.875000
-26.935707	9.396118	1523.492188	1125719.500000
-26.935707	9.396118	1522.465820	1119095.750000
-26.935707	9.396118	1521.440430	1115819.125000
-26.935707	9.396118	1520.414062	1112136.375000
-26.935707	9.396118	1519.386719	1107407.875000
-26.935707	9.396118	1518.360352	1101433.000000
-26.935707	9.396118	1517.333008	1096497.875000
-26.935707	9.396118	1516.306641	1093777.500000
-26.935707	9.396118	1515.278320	1090383.125000
-26.935707	9.396118	1514.250977	1086286.250000
-26.935707	9.396118	1513.223633	1086070.625000
-26.935707	9.396118	1512.195312	1080239.000000
-26.935707	9.396118	1511.166992	1078194.500000
-26.935707	9.396118	1510.138672	1076944.875000
-26.935707	9.396118	1509.109375	1078144.375000
-26.935707	9.396118	1508.081055	1075030.250000
-26.935707	9.396118	1507.051758	1074757.000000
-26.935707	9.396118	1506.022461	1076096.875000
-26.935707	9.396118	1504.992188	1078179.125000
-26.935707	9.396118	1503.962891	1076257.000000
-26.935707	9.396118	1502.932617	1074079.875000
-26.935707	9.396118	1501.902344	1081705.250000
-26.935707	9.396118	1500.872070	1079876.375000
-26.935707	9.396118	1499.840820	1083804.875000
-26.935707	9.396118	1498.810547	1081341.375000
-26.935707	9.396118	1497.779297	1086722.875000
-26.935707	9.396118	1496.748047	1087584.500000
-26.935707	9.396118	1495.715820	1090122.125000
-26.935707	9.396118	1494.684570	1092463.125000
-26.935707	9.396118	1493.652344	1095203.375000
-26.935707	9.396118	1492.620117	1100201.500000
-26.935707	9.396118	1491.586914	1102500.375000
-26.935707	9.396118	1490.554688	1101794.375000
-26.935707	9.396118	1489.521484	1106511.375000
-26.935707	9.396118	1488.488281	1108726.125000
-26.935707	9.396118	1487.455078	1108580.750000
-26.935707	9.396118	1486.421875	1110115.625000
-26.935707	9.396118	1485.387695	1111528.500000
-26.935707	9.396118	1484.353516	1113899.250000
-26.935707	9.396118	1483.319336	1115550.750000
-26.935707	9.396118	1482.285156	1111891.250000
-26.935707	9.396118	1481.250000	1116870.625000
-26.935707	9.396118	1480.214844	1121605.375000
-26.935707	9.396118	1479.179688	1120327.875000
-26.935707	9.396118	1478.144531	1121640.750000
-26.935707	9.396118	1477.109375	1123998.000000
-26.935707	9.396118	1476.073242	1127869.375000
-26.935707	9.396118	1475.037109	1126769.375000
-26.935707	9.396118	1474.000977	1130025.875000
-26.935707	9.396118	1472.964844	1128408.250000
-26.935707	9.396118	1471.927734	1134878.000000
-26.935707	9.396118	1470.890625	1135051.000000
-26.935707	9.396118	1469.853516	1136879.375000
-26.935707	9.396118	1468.816406	1140603.875000
-26.935707	9.396118	1467.778320	1140267.875000
-26.935707	9.396118	1466.741211	1144656.000000
-26.935707	9.396118	1465.703125	1145421.000000
-26.935707	9.396118	1464.664062	1151473.875000
-26.935707	9.396118	1463.625977	1155723.750000
-26.935707	9.396118	1462.586914	1157638.875000
-26.935707	9.396118	1461.547852	1155442.750000
-26.935707	9.396118	1460.508789	1160062.750000
-26.935707	9.396118	1459.469727	1163755.250000
-26.935707	9.396118	1458.429688	1167969.000000
-26.935707	9.396118	1457.389648	1170304.750000
-26.935707	9.396118	1456.349609	1175179.750000
-26.935707	9.396118	1455.309570	1177855.625000
-26.935707	9.396118	1454.269531	1183691.250000
-26.935707	9.396118	1453.228516	1189153.000000
-26.935707	9.396118	1452.187500	1194723.500000
-26.935707	9.396118	1451.146484	1198120.125000
-26.935707	9.396118	1450.104492	1201550.625000
-26.935707	9.396118	1449.063477	1208226.875000
-26.935707	9.396118	1448.021484	1210543.750000
-26.935707	9.396118	1446.979492	1213742.375000
-26.935707	9.396118	1445.936523	1219214.750000
-26.935707	9.396118	1444.894531	1226933.250000
-26.935707	9.396118	1443.851562	1228809.625000
-26.935707	9.396118	1442.808594	1232029.375000
-26.935707	9.396118	1441.765625	1233868.250000
-26.935707	9.396118	1440.721680	1239551.375000
-26.935707	9.396118	1439.677734	1244209.000000
-26.935707	9.396118	1438.633789	1243270.000000
-26.935707	9.396118	1437.589844	1246261.250000
-26.935707	9.396118	1436.545898	1252193.000000
-26.935707	9.396118	1435.500977	1253725.375000
-26.935707	9.396118	1434.456055	1257658.500000
-26.935707	9.396118	1433.411133	1258249.625000
-26.935707	9.396118	1432.366211	1259958.250000
-26.935707	9.396118	1431.320312	1260451.875000
-26.935707	9.396118	1430.274414	1268585.750000
-26.935707	9.396118	1429.228516	1269319.375000
-26.935707	9.396118	1428.182617	1272925.875000
-26.935707	9.396118	1427.135742	1277680.250000
-26.935707	9.396118	1426.089844	1279931.750000
-26.935707	9.396118	1425.042969	1282266.750000
-26.935707	9.396118	1423.995117	1282707.000000
-26.935707	9.396118	1422.948242	1282785.125000
-26.935707	9.396118	1421.900391	1289732.125000
-26.935707	9.396118	1420.852539	1294116.875000
-26.935707	9.396118	1419.804688	1296199.125000
-26.935707	9.396118	1418.756836	1302436.625000
-26.935707	9.396118	1417.708008	1307864.125000
-26.935707	9.396118	1416.659180	1305548.000000
-26.935707	9.396118	1415.610352	1311249.000000
-26.935707	9.396118	1414.561523	1313193.375000
-26.935707	9.396118	1413.511719	1316287.875000
-26.935707	9.396118	1412.461914	1320020.750000
-26.935707	9.396118	1411.412109	1320335.375000
-26.935707	9.396118	1410.362305	1324749.625000
-26.935707	9.396118	1409.312500	1334415.250000
-26.935707	9.396118	1408.261719	1329033.625000
-26.935707	9.396118	1407.210938	1334271.375000
-26.935707	9.396118	1406.160156	1334324.500000
-26.935707	9.396118	1405.108398	1339219.375000
-26.935707	9.396118	1404.057617	1344612.625000
-26.935707	9.396118	1403.005859	1346454.875000
-26.935707	9.396118	1401.954102	1348083.375000
-26.935707	9.396118	1400.901367	1349475.000000
-26.935707	9.396118	1399.849609	1357701.000000
-26.935707	9.396118	1398.796875	1361765.625000
-26.935707	9.396118	1397.744141	1362821.125000
-26.935707	9.396118	1396.690430	1370260.500000
-26.935707	9.396118	1395.637695	1370120.000000
-26.935707	9.396118	1394.583984	1372015.500000
-26.935707	9.396118	1393.530273	1378810.375000
-26.935707	9.396118	1392.476562	1379225.500000
-26.935707	9.396118	1391.421875	1382820.875000
-26.935707	9.396118	1390.368164	1386976.875000
-26.935707	9.396118	1389.313477	1390151.250000
-26.935707	9.396118	1388.257812	1392951.000000
-26.935707	9.396118	1387.203125	1393856.250000
-26.935707	9.396118	1386.147461	1387973.125000
-26.935707	9.396118	1385.091797	1393805.375000
-26.935707	9.396118	1384.036133	1392724.375000
-26.935707	9.396118	1382.980469	1396083.500000
-26.935707	9.396118	1381.923828	1394368.750000
-26.935707	9.396118	1380.867188	1400401.250000
-26.935707	9.396118	1379.810547	1396504.625000
-26.935707	9.396118	1378.753906	1401421.250000
-26.935707	9.396118	1377.696289	1402836.000000
-26.935707	9.396118	1376.638672	1404582.500000
-26.935707	9.396118	1375.581055	1403446.500000
-26.935707	9.396118	1374.523438	1404206.000000
-26.935707	9.396118	1373.465820	1406594.750000
-26.935707	9.396118	1372.407227	1404691.500000
-26.935707	9.396118	1371.348633	1402326.625000
-26.935707	9.396118	1370.290039	1402732.000000
-26.935707	9.396118	1369.230469	1402375.250000
-26.935707	9.396118	1368.170898	1403955.250000
-26.935707	9.396118	1367.111328	1402599.750000
-26.935707	9.396118	1366.051758	1402976.250000
-26.935707	9.396118	1364.992188	1404863.375000
-26.935707	9.396118	1363.931641	1401614.875000
-26.935707	9.396118	1362.871094	1402510.625000
-26.935707	9.396118	1361.810547	1400919.750000
-26.935707	9.396118	1360.750000	1400236.000000
-26.935707	9.396118	1359.688477	1400252.500000
-26.935707	9.396118	1358.626953	1398915.250000
-26.935707	9.396118	1357.565430	1401663.750000
-26.935707	9.396118	1356.503906	1404149.250000
-26.935707	9.396118	1355.441406	1397044.375000
-26.935707	9.396118	1354.378906	1395685.375000
-26.935707	9.396118	1353.316406	1392141.375000
-26.935707	9.396118	1352.253906	1385807.375000
-26.935707	9.396118	1351.191406	1382873.125000
-26.935707	9.396118	1350.127930	1379171.875000
-26.935707	9.396118	1349.064453	1370209.875000
-26.935707	9.396118	1348.000000	1368772.250000
-26.935707	9.396118	1346.936523	1367917.750000
-26.935707	9.396118	1345.872070	1364095.500000
-26.935707	9.396118	1344.807617	1358014.500000
-26.935707	9.396118	1343.743164	1355332.625000
-26.935707	9.396118	1342.678711	1347140.000000
-26.935707	9.396118	1341.613281	1344519.250000
-26.935707	9.396118	1340.547852	1341597.000000
-26.935707	9.396118	1339.482422	1334885.250000
-26.935707	9.396118	1338.416016	1325596.000000
-26.935707	9.396118	1337.350586	1324963.875000
-26.935707	9.396118	1336.284180	1323893.625000
-26.935707	9.396118	1335.217773	1316277.875000
-26.935707	9.396118	1334.150391	1310655.500000
-26.935707	9.396118	1333.083984	1312632.000000
-26.935707	9.396118	1332.016602	1307704.000000
-26.935707	9.396118	1330.949219	1308703.000000
-26.935707	9.396118	1329.880859	1307706.125000
-26.935707	9.396118	1328.813477	1309079.750000
-26.935707	9.396118	1327.745117	1305363.250000
-26.935707	9.396118	1326.676758	1299244.500000
-26.935707	9.396118	1325.607422	1290672.250000
-26.935707	9.396118	1324.539062	1278697.625000
-26.935707	9.396118	1323.469727	1263612.750000
-26.935707	9.396118	1322.400391	1245914.250000
-26.935707	9.396118	1321.331055	1234916.125000
-26.935707	9.396118	1320.260742	1225311.625000
-26.935707	9.396118	1319.190430	1213217.000000
-26.935707	9.396118	1318.120117	1205944.875000
-26.935707	9.396118	1317.049805	1193517.250000
-26.935707	9.396118	1315.978516	1191210.125000
-26.935707	9.396118	1314.908203	1185743.500000
-26.935707	9.396118	1313.836914	1178355.000000
-26.935707	9.396118	1312.764648	1168053.875000
-26.935707	9.396118	1311.693359	1164656.875000
-26.935707	9.396118	1310.621094	1160029.000000
-26.935707	9.396118	1309.548828	1152636.125000
-26.935707	9.396118	1308.476562	1143985.000000
-26.935707	9.396118	1307.404297	1139662.500000
-26.935707	9.396118	1306.331055	1132304.000000
-26.935707	9.396118	1305.257812	1130356.000000
-26.935707	9.396118	1304.184570	1123642.125000
-26.935707	9.396118	1303.110352	1116601.000000
-26.935707	9.396118	1302.037109	1111549.125000
-26.935707	9.396118	1300.962891	1100977.625000
-26.935707	9.396118	1299.887695	1096723.375000
-26.935707	9.396118	1298.813477	1087615.625000
-26.935707	9.396118	1297.738281	1082997.500000
-26.935707	9.396118	1296.663086	1075683.750000
-26.935707	9.396118	1295.587891	1074556.500000
-26.935707	9.396118	1294.512695	1072839.625000
-26.935707	9.396118	1293.436523	1072015.250000
-26.935707	9.396118	1292.360352	1067871.625000
-26.935707	9.396118	1291.284180	1066118.250000
-26.935707	9.396118	1290.208008	1064463.750000
-26.935707	9.396118	1289.130859	1060916.000000
-26.935707	9.396118	1288.053711	1060113.000000
-26.935707	9.396118	1286.976562	1053594.375000
-26.935707	9.396118	1285.899414	1047480.437500
-26.935707	9.396118	1284.821289	1041974.000000
-26.935707	9.396118	1283.743164	1040474.812500
-26.935707	9.396118	1282.665039	1034180.500000
-26.935707	9.396118	1281.586914	1023669.062500
-26.935707	9.396118	1280.507812	1022466.562500
-26.935707	9.396118	1279.429688	1016353.500000
-26.935707	9.396118	1278.349609	1013448.000000
-26.935707	9.396118	1277.270508	1006446.062500
-26.935707	9.396118	1276.190430	1005719.812500
-26.935707	9.396118	1275.111328	1001629.187500
-26.935707	9.396118	1274.031250	1002855.937500
-26.935707	9.396118	1272.950195	1000939.812500
-26.935707	9.396118	1271.870117	996800.437500
-26.935707	9.396118	1270.789062	997351.125000
-26.935707	9.396118	1269.708008	995596.562500
-26.935707	9.396118	1268.625977	993710.687500
-26.935707	9.396118	1267.544922	993021.875000
-26.935707	9.396118	1266.462891	989793.437500
-26.935707	9.396118	1265.380859	987571.125000
-26.935707	9.396118	1264.298828	987829.375000
-26.935707	9.396118	1263.215820	984813.000000
-26.935707	9.396118	1262.132812	983501.750000
-26.935707	9.396118	1261.049805	982811.062500
-26.935707	9.396118	1259.966797	978846.062500
-26.935707	9.396118	1258.882812	975187.000000
-26.935707	9.396118	1257.799805	974325.875000
-26.935707	9.396118	1256.715820	969146.562500
-26.935707	9.396118	1255.630859	966521.875000
-26.935707	9.396118	1254.546875	965522.312500
-26.935707	9.396118	1253.461914	963718.062500
-26.935707	9.396118	1252.376953	964657.937500
-26.935707	9.396118	1251.291016	962698.125000
-26.935707	9.396118	1250.206055	960770.812500
-26.935707	9.396118	1249.120117	963690.687500
-26.935707	9.396118	1248.034180	958524.562500
-26.935707	9.396118	1246.948242	956841.562500
-26.935707	9.396118	1245.861328	954280.687500
-26.935707	9.396118	1244.774414	956236.937500
-26.935707	9.396118	1243.687500	956445.062500
-26.935707	9.396118	1242.600586	954770.437500
-26.935707	9.396118	1241.513672	956179.750000
-26.935707	9.396118	1240.425781	955946.437500
-26.935707	9.396118	1239.337891	957773.062500
-26.935707	9.396118	1238.249023	957023.875000
-26.935707	9.396118	1237.161133	956399.187500
-26.935707	9.396118	1236.072266	956778.062500
-26.935707	9.396118	1234.983398	957088.812500
-26.935707	9.396118	1233.894531	956979.250000
-26.935707	9.396118	1232.804688	955530.625000
-26.935707	9.396118	1231.714844	959807.750000
-26.935707	9.396118	1230.625000	962979.187500
-26.935707	9.396118	1229.535156	965587.187500
-26.935707	9.396118	1228.444336	968446.625000
-26.935707	9.396118	1227.353516	965683.812500
-26.935707	9.396118	1226.262695	965062.250000
-26.935707	9.396118	1225.171875	963518.750000
-26.935707	9.396118	1224.080078	960650.437500
-26.935707	9.396118	1222.989258	960136.062500
-26.935707	9.396118	1221.897461	956499.125000
-26.935707	9.396118	1220.804688	955931.625000
-26.935707	9.396118	1219.712891	957195.187500
-26.935707	9.396118	1218.620117	952536.687500
-26.935707	9.396118	1217.527344	955288.125000
-26.935707	9.396118	1216.433594	949990.625000
-26.935707	9.396118	1215.340820	950763.500000
-26.935707	9.396118	1214.247070	945071.062500
-26.935707	9.396118	1213.153320	943831.687500
-26.935707	9.396118	1212.058594	940841.312500
-26.935707	9.396118	1210.964844	938749.125000
-26.935707	9.396118	1209.870117	941325.625000
-26.935707	9.396118	1208.775391	941323.687500
-26.935707	9.396118	1207.679688	934400.562500
-26.935707	9.396118	1206.584961	933490.437500
-26.935707	9.396118	1205.489258	932758.000000
-26.935707	9.396118	1204.393555	931799.125000
-26.935707	9.396118	1203.296875	929060.812500
-26.935707	9.396118	1202.201172	929882.312500
-26.935707	9.396118	1201.104492	925142.187500
-26.935707	9.396118	1200.007812	928328.000000
-26.935707	9.396118	1198.910156	927875.250000
-26.935707	9.396118	1197.813477	928940.312500
-26.935707	9.396118	1196.715820	931461.687500
-26.935707	9.396118	1195.618164	932471.500000
-26.935707	9.396118	1194.519531	931984.250000
-26.935707	9.396118	1193.420898	932030.187500
-26.935707	9.396118	1192.322266	933824.875000
-26.935707	9.396118	1191.223633	934633.625000
-26.935707	9.396118	1190.125000	934862.187500
-26.935707	9.396118	1189.025391	935929.750000
-26.935707	9.396118	1187.925781	937327.812500
-26.935707	9.396118	1186.826172	938107.812500
-26.935707	9.396118	1185.725586	936029.500000
-26.935707	9.396118	1184.625977	936431.437500
-26.935707	9.396118	1183.525391	934486.187500
-26.935707	9.396118	1182.423828	929574.000000
-26.935707	9.396118	1181.323242	930678.437500
-26.935707	9.396118	1180.221680	927178.625000
-26.935707	9.396118	1179.120117	921759.812500
-26.935707	9.396118	1178.018555	916888.187500
-26.935707	9.396118	1176.916016	916369.125000
-26.935707	9.396118	1175.814453	911938.125000
-26.935707	9.396118	1174.711914	908658.062500
-26.935707	9.396118	1173.608398	906782.500000
-26.935707	9.396118	1172.505859	902829.250000
-26.935707	9.396118	1171.402344	901687.000000
-26.935707	9.396118	1170.298828	898946.937500
-26.935707	9.396118	1169.194336	900208.375000
-26.935707	9.396118	1168.090820	896043.750000
-26.935707	9.396118	1166.986328	896917.437500
-26.935707	9.396118	1165.881836	899895.250000
-26.935707	9.396118	1164.777344	902172.437500
-26.935707	9.396118	1163.671875	903807.437500
-26.935707	9.396118	1162.566406	911426.000000
-26.935707	9.396118	1161.460938	918309.062500
-26.935707	9.396118	1160.354492	923411.437500
-26.935707	9.396118	1159.249023	925669.125000
-26.935707	9.396118	1158.142578	931765.625000
-26.935707	9.396118	1157.036133	934253.625000
-26.935707	9.396118	1155.928711	930693.000000
-26.935707	9.396118	1154.822266	928978.187500
-26.935707	9.396118	1153.714844	922319.062500
-26.935707	9.396118	1152.606445	919662.812500
-26.935707	9.396118	1151.499023	910348.562500
-26.935707	9.396118	1150.390625	903143.000000
-26.935707	9.396118	1149.282227	899613.875000
-26.935707	9.396118	1148.173828	900291.062500
-26.935707	9.396118	1147.064453	898347.937500
-26.935707	9.396118	1145.956055	896585.250000
-26.935707	9.396118	1144.846680	896772.375000
-26.935707	9.396118	1143.736328	899156.250000
-26.935707	9.396118	1142.626953	898050.437500
-26.935707	9.396118	1141.516602	895369.500000
-26.935707	9.396118	1140.406250	886690.437500
-26.935707	9.396118	1139.295898	881056.375000
-26.935707	9.396118	1138.184570	875985.000000
-26.935707	9.396118	1137.073242	869846.562500
-26.935707	9.396118	1135.961914	870598.750000
-26.935707	9.396118	1134.850586	863731.750000
-26.935707	9.396118	1133.738281	863274.750000
-26.935707	9.396118	1132.625977	864589.500000
-26.935707	9.396118	1131.513672	858906.937500
-26.935707	9.396118	1130.400391	858260.937500
-26.935707	9.396118	1129.288086	856580.750000
-26.935707	9.396118	1128.174805	855265.875000
-26.935707	9.396118	1127.061523	853397.000000
-26.935707	9.396118	1125.947266	852136.250000
-26.935707	9.396118	1124.833008	852216.500000
-26.935707	9.396118	1123.718750	851994.062500
-26.935707	9.396118	1122.604492	849394.500000
-26.935707	9.396118	1121.490234	848393.750000
-26.935707	9.396118	1120.375000	849703.312500
-26.935707	9.396118	1119.259766	849154.937500
-26.935707	9.396118	1118.144531	851204.500000
-26.935707	9.396118	1117.028320	850519.125000
-26.935707	9.396118	1115.912109	851632.687500
-26.935707	9.396118	1114.795898	850627.875000
-26.935707	9.396118	1113.679688	851432.312500
-26.935707	9.396118	1112.562500	847797.875000
-26.935707	9.396118	1111.445312	849009.750000
-26.935707	9.396118	1110.328125	849560.562500
-26.935707	9.396118	1109.210938	847775.562500
-26.935707	9.396118	1108.092773	842848.812500
-26.935707	9.396118	1106.974609	842414.750000
-26.935707	9.396118	1105.856445	840084.687500
-26.935707	9.396118	1104.737305	839690.875000
-26.935707	9.396118	1103.619141	836999.562500
-26.935707	9.396118	1102.500000	834377.562500
-26.935707	9.396118	1101.379883	829427.312500
-26.935707	9.396118	1100.260742	831362.687500
-26.935707	9.396118	1099.140625	828416.312500
-26.935707	9.396118	1098.020508	828607.187500
-26.935707	9.396118	1096.900391	827432.250000
-26.935707	9.396118	1095.779297	825594.937500
-26.935707	9.396118	1094.658203	823222.875000
-26.935707	9.396118	1093.537109	823164.312500
-26.935707	9.396118	1092.416016	823393.125000
-26.935707	9.396118	1091.293945	820071.187500
-26.935707	9.396118	1090.171875	819732.562500
-26.935707	9.396118	1089.049805	820194.125000
-26.935707	9.396118	1087.926758	817668.312500
-26.935707	9.396118	1086.804688	815128.312500
-26.935707	9.396118	1085.681641	817482.937500
-26.935707	9.396118	1084.557617	816875.562500
-26.935707	9.396118	1083.434570	813148.312500
-26.935707	9.396118	1082.310547	813881.750000
-26.935707	9.396118	1081.186523	810962.125000
-26.935707	9.396118	1080.062500	809468.187500
-26.935707	9.396118	1078.937500	810256.375000
-26.935707	9.396118	1077.812500	810003.187500
-26.935707	9.396118	1076.687500	808547.437500
-26.935707	9.396118	1075.562500	807778.687500
-26.935707	9.396118	1074.436523	808515.937500
-26.935707	9.396118	1073.310547	810019.750000
-26.935707	9.396118	1072.184570	809862.562500
-26.935707	9.396118	1071.058594	807405.750000
-26.935707	9.396118	1069.931641	808185.812500
-26.935707	9.396118	1068.804688	808103.187500
-26.935707	9.396118	1067.677734	807245.750000
-26.935707	9.396118	1066.549805	806801.062500
-26.935707	9.396118	1065.421875	802251.062500
-26.935707	9.396118	1064.293945	803107.375000
-26.935707	9.396118	1063.166016	803339.625000
-26.935707	9.396118	1062.038086	800284.437500
-26.935707	9.396118	1060.909180	801038.000000
-26.935707	9.396118	1059.780273	801854.250000
-26.935707	9.396118	1058.650391	799973.250000
-26.935707	9.396118	1057.520508	798977.312500
-26.935707	9.396118	1056.391602	799845.500000
-26.935707	9.396118	1055.260742	799955.687500
-26.935707	9.396118	1054.130859	800551.125000
-26.935707	9.396118	1053.000000	801574.750000
-26.935707	9.396118	1051.869141	803098.250000
-26.935707	9.396118	1050.738281	803770.562500
-26.935707	9.396118	1049.606445	802592.125000
-26.935707	9.396118	1048.474609	802233.750000
-26.935707	9.396118	1047.342773	803083.812500
-26.935707	9.396118	1046.210938	801636.750000
-26.935707	9.396118	1045.078125	800735.500000
-26.935707	9.396118	1043.946289	798952.875000
-26.935707	9.396118	1042.812500	795653.250000
-26.935707	9.396118	1041.679688	793646.750000
-26.935707	9.396118	1040.545898	792678.500000
-26.935707	9.396118	1039.412109	790484.687500
-26.935707	9.396118	1038.278320	790480.562500
-26.935707	9.396118	1037.143555	789665.312500
-26.935707	9.396118	1036.009766	788715.937500
-26.935707	9.396118	1034.875000	784406.937500
-26.935707	9.396118	1033.739258	785775.812500
-26.935707	9.396118	1032.604492	787737.687500
-26.935707	9.396118	1031.468750	787610.375000
-26.935707	9.396118	1030.333008	785964.812500
-26.935707	9.396118	1029.196289	785863.812500
-26.935707	9.396118	1028.060547	783113.125000
-26.935707	9.396118	1026.923828	783770.125000
-26.935707	9.396118	1025.786133	782150.562500
-26.935707	9.396118	1024.649414	783802.437500
-26.935707	9.396118	1023.511719	782306.687500
-26.935707	9.396118	1022.374023	782790.062500
-26.935707	9.396118	1021.236328	783781.062500
-26.935707	9.396118	1020.097656	783742.812500
-26.935707	9.396118	1018.958984	782721.437500
-26.935707	9.396118	1017.820312	781907.812500
-26.935707	9.396118	1016.681641	781610.687500
-26.935707	9.396118	1015.541992	785044.625000
-26.935707	9.396118	1014.402344	783708.437500
-26.935707	9.396118	1013.262695	784802.875000
-26.935707	9.396118	1012.122070	788552.750000
-26.935707	9.396118	1010.982422	787235.875000
-26.935707	9.396118	1009.841797	789820.937500
-26.935707	9.396118	1008.700195	789696.562500
-26.935707	9.396118	1007.559570	792544.812500
-26.935707	9.396118	1006.417969	791749.437500
-26.935707	9.396118	1005.276367	793962.312500
-26.935707	9.396118	1004.133789	794771.687500
-26.935707	9.396118	1002.992188	794482.250000
-26.935707	9.396118	1001.849609	793730.000000
-26.935707	9.396118	1000.706055	794170.625000
-26.935707	9.396118	999.563477	791447.312500
-26.935707	9.396118	998.419922	794457.062500
-26.935707	9.396118	997.276367	791502.500000
-26.935707	9.396118	996.132812	793022.500000
-26.935707	9.396118	994.988281	792054.062500
-26.935707	9.396118	993.843750	792724.000000
-26.935707	9.396118	992.699219	792355.500000
-26.935707	9.396118	991.554688	794402.125000
-26.935707	9.396118	990.409180	795034.312500
-26.935707	9.396118	989.263672	795223.750000
-26.935707	9.396118	988.118164	797942.187500
-26.935707	9.396118	986.971680	795561.250000
-26.935707	9.396118	985.825195	799754.750000
-26.935707	9.396118	984.678711	794465.000000
-26.935707	9.396118	983.532227	790164.375000
-26.935707	9.396118	982.384766	788151.812500
-26.935707	9.396118	981.237305	788247.687500
-26.935707	9.396118	980.089844	784131.437500
-26.935707	9.396118	978.942383	783139.437500
-26.935707	9.396118	977.793945	784001.062500
-26.935707	9.396118	976.645508	782210.437500
-26.935707	9.396118	975.497070	782801.937500
-26.935707	9.396118	974.347656	779224.562500
-26.935707	9.396118	973.198242	779332.625000
-26.935707	9.396118	972.048828	778509.625000
-26.935707	9.396118	970.899414	777434.500000
-26.935707	9.396118	969.749023	780533.000000
-26.935707	9.396118	968.598633	777841.062500
-26.935707	9.396118	967.448242	779567.437500
-26.935707	9.396118	966.297852	780072.375000
-26.935707	9.396118	965.146484	780998.062500
-26.935707	9.396118	963.995117	778750.500000
-26.935707	9.396118	962.842773	777734.250000
-26.935707	9.396118	961.691406	778503.750000
-26.935707	9.396118	960.539062	776734.250000
-26.935707	9.396118	959.386719	778099.000000
-26.935707	9.396118	958.233398	774729.812500
-26.935707	9.396118	957.081055	775539.562500
-26.935707	9.396118	955.927734	774800.250000
-26.935707	9.396118	954.773438	775539.062500
-26.935707	9.396118	953.620117	776194.312500
-26.935707	9.396118	952.465820	775713.125000
-26.935707	9.396118	951.311523	776627.812500
-26.935707	9.396118	950.156250	775040.937500
-26.935707	9.396118	949.001953	774517.500000
-26.935707	9.396118	947.846680	773455.562500
-26.935707	9.396118	946.690430	773518.125000
-26.935707	9.396118	945.535156	774517.125000
-26.935707	9.396118	944.378906	774336.625000
-26.935707	9.396118	943.222656	772473.437500
-26.935707	9.396118	942.066406	774033.250000
-26.935707	9.396118	940.909180	770416.500000
-26.935707	9.396118	939.751953	774939.562500
-26.935707	9.396118	938.594727	773300.812500
-26.935707	9.396118	937.437500	773585.937500
-26.935707	9.396118	936.279297	776377.625000
-26.935707	9.396118	935.121094	773873.000000
-26.935707	9.396118	933.962891	775079.062500
-26.935707	9.396118	932.803711	775866.312500
-26.935707	9.396118	931.644531	776048.250000
-26.935707	9.396118	930.485352	776628.937500
-26.935707	9.396118	929.326172	776619.562500
-26.935707	9.396118	928.166016	775326.937500
-26.935707	9.396118	927.005859	777616.250000
-26.935707	9.396118	925.845703	782041.375000
-26.935707	9.396118	924.684570	781216.562500
-26.935707	9.396118	923.523438	783392.500000
-26.935707	9.396118	922.362305	783597.187500
-26.935707	9.396118	921.201172	789236.375000
-26.935707	9.396118	920.039062	789744.375000
-26.935707	9.396118	918.876953	790785.562500
-26.935707	9.396118	917.714844	794128.812500
-26.935707	9.396118	916.551758	792193.312500
-26.935707	9.396118	915.389648	793385.312500
-26.935707	9.396118	914.226562	792933.312500
-26.935707	9.396118	913.062500	788341.500000
-26.935707	9.396118	911.899414	789987.812500
-26.935707	9.396118	910.735352	785517.062500
-26.935707	9.396118	909.570312	784380.375000
-26.935707	9.396118	908.406250	785504.562500
-26.935707	9.396118	907.241211	784501.375000
-26.935707	9.396118	906.076172	782229.625000
-26.935707	9.396118	904.911133	781972.750000
-26.935707	9.396118	903.745117	780850.625000
-26.935707	9.396118	902.579102	780792.375000
-26.935707	9.396118	901.413086	779154.125000
-26.935707	9.396118	900.247070	779760.500000
-26.935707	9.396118	899.080078	777676.187500
-26.935707	9.396118	897.913086	775852.062500
-26.935707	9.396118	896.746094	778108.687500
-26.935707	9.396118	895.578125	778147.750000
-26.935707	9.396118	894.410156	777759.062500
-26.935707	9.396118	893.242188	777964.437500
-26.935707	9.396118	892.073242	776611.562500
-26.935707	9.396118	890.905273	776000.250000
-26.935707	9.396118	889.736328	777885.000000
-26.935707	9.396118	888.566406	775722.937500
-26.935707	9.396118	887.397461	777329.125000
-26.935707	9.396118	886.227539	778457.125000
-26.935707	9.396118	885.057617	777374.812500
-26.935707	9.396118	883.886719	777554.125000
-26.935707	9.396118	882.716797	774745.062500
-26.935707	9.396118	881.545898	775475.250000
-26.935707	9.396118	880.374023	773684.437500
-26.935707	9.396118	879.203125	774454.312500
-26.935707	9.396118	878.031250	773521.125000
-26.935707	9.396118	876.859375	774103.750000
-26.935707	9.396118	875.686523	775760.437500
-26.935707	9.396118	874.514648	775400.125000
-26.935707	9.396118	873.341797	775014.750000
-26.935707	9.396118	872.167969	775231.312500
-26.935707	9.396118	870.995117	771651.062500
-26.935707	9.396118	869.821289	774272.312500
-26.935707	9.396118	868.647461	771965.812500
-26.935707	9.396118	867.472656	774646.375000
-26.935707	9.396118	866.298828	773486.375000
-26.935707	9.396118	865.124023	771384.625000
-26.935707	9.396118	863.948242	772740.187500
-26.935707	9.396118	862.773438	770547.375000
-26.935707	9.396118	861.597656	772197.375000
-26.935707	9.396118	860.421875	772662.500000
-26.935707	9.396118	859.245117	771472.937500
-26.935707	9.396118	858.069336	770953.000000
-26.935707	9.396118	856.892578	773228.250000
-26.935707	9.396118	855.715820	772981.812500
-26.935707	9.396118	854.538086	773422.875000
-26.935707	9.396118	853.360352	771952.250000
-26.935707	9.396118	852.182617	771689.437500
-26.935707	9.396118	851.004883	774587.875000
-26.935707	9.396118	849.826172	774802.500000
-26.935707	9.396118	848.647461	773146.937500
-26.935707	9.396118	847.468750	774790.937500
-26.935707	9.396118	846.289062	776265.125000
-26.935707	9.396118	845.109375	774297.375000
-26.935707	9.396118	843.929688	774684.562500
-26.935707	9.396118	842.750000	775027.687500
-26.935707	9.396118	841.569336	774885.062500
-26.935707	9.396118	840.388672	777403.062500
-26.935707	9.396118	839.207031	776480.750000
-26.935707	9.396118	838.026367	776631.312500
-26.935707	9.396118	836.844727	777924.812500
-26.935707	9.396118	835.663086	777879.187500
-26.935707	9.396118	834.480469	777452.687500
-26.935707	9.396118	833.298828	778272.625000
-26.935707	9.396118	832.116211	776731.187500
-26.935707	9.396118	830.932617	779324.625000
-26.935707	9.396118	829.750000	779128.750000
-26.935707	9.396118	828.566406	777972.625000
-26.935707	9.396118	827.382812	779701.312500
-26.935707	9.396118	826.198242	780481.812500
-26.935707	9.396118	825.013672	779313.500000
-26.935707	9.396118	823.829102	777861.187500
-26.935707	9.396118	822.644531	779793.625000
-26.935707	9.396118	821.458984	781961.750000
-26.935707	9.396118	820.273438	780935.062500
-26.935707	9.396118	819.087891	783527.062500
-26.935707	9.396118	817.902344	782896.562500
-26.935707	9.396118	816.715820	782336.812500
-26.935707	9.396118	815.529297	785131.687500
-26.935707	9.396118	814.342773	782100.937500
-26.935707	9.396118	813.155273	782983.875000
-26.935707	9.396118	811.967773	784701.187500
-26.935707	9.396118	810.780273	784903.625000
-26.935707	9.396118	809.591797	785062.375000
-26.935707	9.396118	808.403320	785098.875000
-26.935707	9.396118	807.214844	783494.062500
-26.935707	9.396118	806.026367	783077.625000
-26.935707	9.396118	804.836914	784957.687500
-26.935707	9.396118	803.647461	787211.062500
-26.935707	9.396118	802.458008	787203.312500
-26.935707	9.396118	801.267578	785432.187500
-26.935707	9.396118	800.078125	785608.687500
-26.935707	9.396118	798.887695	786667.375000
-26.935707	9.396118	797.696289	786370.312500
-26.935707	9.396118	796.504883	786422.437500
-26.935707	9.396118	795.313477	786775.875000
-26.935707	9.396118	794.122070	787738.062500
-26.935707	9.396118	792.929688	789684.187500
-26.935707	9.396118	791.738281	786506.187500
-26.935707	9.396118	790.544922	789452.000000
-26.935707	9.396118	789.352539	787556.125000
-26.935707	9.396118	788.159180	786547.687500
-26.935707	9.396118	786.965820	787194.937500
-26.935707	9.396118	785.772461	786592.937500
-26.935707	9.396118	784.578125	786652.562500
-26.935707	9.396118	783.383789	787301.187500
-26.935707	9.396118	782.189453	788583.812500
-26.935707	9.396118	780.995117	788844.500000
-26.935707	9.396118	779.799805	787746.500000
-26.935707	9.396118	778.604492	790575.437500
-26.935707	9.396118	777.408203	791763.187500
-26.935707	9.396118	776.212891	791444.687500
-26.935707	9.396118	775.016602	791774.062500
-26.935707	9.396118	773.819336	792596.625000
-26.935707	9.396118	772.623047	791127.000000
-26.935707	9.396118	771.425781	794750.125000
-26.935707	9.396118	770.228516	792575.812500
-26.935707	9.396118	769.031250	793380.812500
-26.935707	9.396118	767.833008	796140.250000
-26.935707	9.396118	766.634766	797015.750000
-26.935707	9.396118	765.435547	797221.625000
-26.935707	9.396118	764.237305	794930.125000
-26.935707	9.396118	763.038086	798589.000000
-26.935707	9.396118	761.838867	798230.187500
-26.935707	9.396118	760.638672	799917.937500
-26.935707	9.396118	759.439453	804630.687500
-26.935707	9.396118	758.238281	811013.625000
-26.935707	9.396118	757.038086	812910.062500
-26.935707	9.396118	755.836914	815002.250000
-26.935707	9.396118	754.636719	813048.312500
-26.935707	9.396118	753.434570	812540.937500
-26.935707	9.396118	752.233398	814760.500000
-26.935707	9.396118	751.031250	815775.500000
-26.935707	9.396118	749.829102	815194.000000
-26.935707	9.396118	748.625977	817000.000000
-26.935707	9.396118	747.423828	821032.312500
-26.935707	9.396118	746.220703	828610.062500
-26.935707	9.396118	745.016602	828164.875000
-26.935707	9.396118	743.813477	825355.250000
-26.935707	9.396118	742.609375	823695.250000
-26.935707	9.396118	741.405273	816418.500000
-26.935707	9.396118	740.200195	813646.250000
-26.935707	9.396118	738.996094	809474.625000
-26.935707	9.396118	737.790039	808076.937500
-26.935707	9.396118	736.584961	802694.312500
-26.935707	9.396118	735.378906	801282.500000
-26.935707	9.396118	734.173828	800387.437500
-26.935707	9.396118	732.966797	802137.687500
-26.935707	9.396118	731.760742	803063.375000
-26.935707	9.396118	730.553711	799981.250000
-26.935707	9.396118	729.346680	802109.250000
-26.935707	9.396118	728.138672	800187.937500
-26.935707	9.396118	726.931641	801528.562500
-26.935707	9.396118	725.723633	800072.562500
-26.935707	9.396118	724.514648	798965.312500
-26.935707	9.396118	723.306641	801827.562500
-26.935707	9.396118	722.097656	801227.062500
-26.935707	9.396118	720.888672	799381.687500
-26.935707	9.396118	719.678711	800053.187500
-26.935707	9.396118	718.468750	799487.937500
-26.935707	9.396118	717.258789	799925.125000
-26.935707	9.396118	716.048828	798585.750000
-26.935707	9.396118	714.837891	799250.500000
-26.935707	9.396118	713.626953	798641.062500
-26.935707	9.396118	712.416016	797822.750000
-32.255707	-9.485292	1808.186523	565650.750000
-32.255707	-9.485292	1807.220703	566506.375000
-32.255707	-9.485292	1806.254883	567612.812500
-32.255707	-9.485292	1805.288086	566501.812500
-32.255707	-9.485292	1804.321289	565444.687500
-32.255707	-9.485292	1803.354492	567097.687500
-32.255707	-9.485292	1802.387695	568775.375000
-32.255707	-9.485292	1801.419922	569539.312500
-32.255707	-9.485292	1800.453125	570648.750000
-32.255707	-9.485292	1799.485352	567946.937500
-32.255707	-9.485292	1798.517578	570815.000000
-32.255707	-9.485292	1797.548828	570386.000000
-32.255707	-9.485292	1796.581055	571916.000000
-32.255707	-9.485292	1795.612305	573803.437500
-32.255707	-9.485292	1794.643555	572673.125000
-32.255707	-9.485292	1793.674805	572254.125000
-32.255707	-9.485292	1792.706055	573061.437500
-32.255707	-9.485292	1791.736328	572914.062500
-32.255707	-9.485292	1790.766602	573477.250000
-32.255707	-9.485292	1789.796875	573215.625000
-32.255707	-9.485292	1788.827148	573514.687500
-32.255707	-9.485292	1787.857422	575388.312500
-32.255707	-9.485292	1786.886719	576206.500000
-32.255707	-9.485292	1785.916992	575929.250000
-32.255707	-9.485292	1784.946289	578533.562500
-32.255707	-9.485292	1783.974609	578592.875000
-32.255707	-9.485292	1783.003906	579174.000000
-32.255707	-9.485292	1782.032227	581284.562500
-32.255707	-9.485292	1781.061523	580616.500000
-32.255707	-9.485292	1780.089844	582730.875000
-32.255707	-9.485292	1779.117188	584573.562500
-32.255707	-9.485292	1778.145508	583447.125000
-32.255707	-9.485292	1777.172852	584866.312500
-32.255707	-9.485292	1776.200195	585055.500000
-32.255707	-9.485292	1775.227539	584187.500000
-32.255707	-9.485292	1774.254883	588548.750000
-32.255707	-9.485292	1773.282227	586032.125000
-32.255707	-9.485292	1772.308594	586961.375000
-32.255707	-9.485292	1771.334961	589454.375000
-32.255707	-9.485292	1770.361328	589303.687500
-32.255707	-9.485292	1769.387695	589984.062500
-32.255707	-9.485292	1768.413086	591714.687500
-32.255707	-9.485292	1767.438477	592275.562500
-32.255707	-9.485292	1766.463867	593439.437500
-32.255707	-9.485292	1765.489258	592387.062500
-32.255707	-9.485292	1764.514648	594463.750000
-32.255707	-9.485292	1763.539062	596110.750000
-32.255707	-9.485292	1762.564453	597487.187500
-32.255707	-9.485292	1761.588867	596437.187500
-32.255707	-9.485292	1760.612305	599842.375000
-32.255707	-9.485292	1759.636719	601149.000000
-32.255707	-9.485292	1758.660156	600633.062500
-32.255707	-9.485292	1757.684570	601306.562500
-32.255707	-9.485292	1756.708008	601916.750000
-32.255707	-9.485292	1755.730469	603627.187500
-32.255707	-9.485292	1754.753906	604173.625000
-32.255707	-9.485292	1753.776367	605903.000000
-32.255707	-9.485292	1752.798828	606841.312500
-32.255707	-9.485292	1751.821289	607610.625000
-32.255707	-9.485292	1750.843750	609214.812500
-32.255707	-9.485292	1749.866211	611424.500000
-32.255707	-9.485292	1748.887695	610869.500000
-32.255707	-9.485292	1747.909180	612137.500000
-32.255707	-9.485292	1746.930664	613681.500000
-32.255707	-9.485292	1745.952148	613719.375000
-32.255707	-9.485292	1744.972656	614604.000000
-32.255707	-9.485292	1743.993164	617588.437500
-32.255707	-9.485292	1743.013672	616578.000000
-32.255707	-9.485292	1742.034180	620374.312500
-32.255707	-9.485292	1741.054688	618557.750000
-32.255707	-9.485292	1740.074219	621255.062500
-32.255707	-9.485292	1739.094727	622189.562500
-32.255707	-9.485292	1738.114258	623356.937500
-32.255707	-9.485292	1737.132812	624451.000000
-32.255707	-9.485292	1736.152344	626435.000000
-32.255707	-9.485292	1735.170898	626860.937500
-32.255707	-9.485292	1734.190430	626792.812500
-32.255707	-9.485292	1733.208008	628040.562500
-32.255707	-9.485292	1732.226562	630240.000000
-32.255707	-9.485292	1731.245117	630306.375000
-32.255707	-9.485292	1730.262695	631136.750000
-32.255707	-9.485292	1729.280273	632587.750000
-32.255707	-9.485292	1728.297852	634015.625000
-32.255707	-9.485292	1727.315430	633905.812500
-32.255707	-9.485292	1726.332031	636674.187500
-32.255707	-9.485292	1725.349609	636671.375000
-32.255707	-9.485292	1724.366211	639725.687500
-32.255707	-9.485292	1723.382812	640910.250000
-32.255707	-9.485292	1722.398438	640368.875000
-32.255707	-9.485292	1721.415039	645220.437500
-32.255707	-9.485292	1720.430664	644180.875000
-32.255707	-9.485292	1719.446289	644806.125000
-32.255707	-9.485292	1718.461914	647077.625000
-32.255707	-9.485292	1717.476562	648431.312500
-32.255707	-9.485292	1716.492188	650341.375000
-32.255707	-9.485292	1715.506836	648987.000000
-32.255707	-9.485292	1714.521484	653302.750000
-32.255707	-9.485292	1713.536133	653373.437500
-32.255707	-9.485292	1712.549805	651422.750000
-32.255707	-9.485292	1711.564453	655378.375000
-32.255707	-9.485292	1710.578125	656431.312500
-32.255707	-9.485292	1709.591797	658112.187500
-32.255707	-9.485292	1708.604492	659014.437500
-32.255707	-9.485292	1707.618164	663710.375000
-32.255707	-9.485292	1706.630859	663898.187500
-32.255707	-9.485292	1705.643555	664721.250000
-32.255707	-9.485292	1704.656250	664029.312500
-32.255707	-9.485292	1703.668945	667930.562500
-32.255707	-9.485292	1702.680664	668483.250000
-32.255707	-9.485292	1701.692383	671901.312500
-32.255707	-9.485292	1700.704102	673879.187500
-32.255707	-9.485292	1699.715820	674091.687500
-32.255707	-9.485292	1698.727539	674632.500000
-32.255707	-9.485292	1697.738281	677770.187500
-32.255707	-9.485292	1696.749023	679292.312500
-32.255707	-9.485292	1695.759766	682731.000000
-32.255707	-9.485292	1694.770508	680626.687500
-32.255707	-9.485292	1693.780273	682296.312500
-32.255707	-9.485292	1692.791016	684964.187500
-32.255707	-9.485292	1691.800781	688301.750000
-32.255707	-9.485292	1690.810547	689163.750000
-32.255707	-9.485292	1689.819336	689339.937500
-32.255707	-9.485292	1688.829102	693953.062500
-32.255707	-9.485292	1687.837891	692909.250000
-32.255707	-9.485292	1686.846680	693434.375000
-32.255707	-9.485292	1685.855469	697453.062500
-32.255707	-9.485292	1684.864258	701073.062500
-32.255707	-9.485292	1683.872070	698723.750000
-32.255707	-9.485292	1682.879883	702064.187500
-32.255707	-9.485292	1681.887695	705301.500000
-32.255707	-9.485292	1680.895508	704853.875000
-32.255707	-9.485292	1679.903320	707514.250000
-32.255707	-9.485292	1678.910156	707480.062500
-32.255707	-9.485292	1677.916992	709115.562500
-32.255707	-9.485292	1676.923828	712219.000000
-32.255707	-9.485292	1675.930664	713273.250000
-32.255707	-9.485292	1674.936523	716909.187500
-32.255707	-9.485292	1673.942383	716372.875000
-32.255707	-9.485292	1672.949219	721508.687500
-32.255707	-9.485292	1671.954102	718687.937500
-32.255707	-9.485292	1670.959961	720872.437500
-32.255707	-9.485292	1669.964844	724710.500000
-32.255707	-9.485292	1668.970703	726860.562500
-32.255707	-9.485292	1667.975586	726159.437500
-32.255707	-9.485292	1666.979492	728261.312500
-32.255707	-9.485292	1665.984375	730438.812500
-32.255707	-9.485292	1664.988281	730177.000000
-32.255707	-9.485292	1663.993164	735181.250000
-32.255707	-9.485292	1662.996094	733463.937500
-32.255707	-9.485292	1662.000000	736650.625000
-32.255707	-9.485292	1661.003906	738463.437500
-32.255707	-9.485292	1660.006836	737913.687500
-32.255707	-9.485292	1659.009766	741706.750000
-32.255707	-9.485292	1658.012695	740436.125000
-32.255707	-9.485292	1657.015625	742192.250000
-32.255707	-9.485292	1656.017578	743348.312500
-32.255707	-9.485292	1655.019531	744489.125000
-32.255707	-9.485292	1654.021484	746994.875000
-32.255707	-9.485292	1653.023438	748158.937500
-32.255707	-9.485292	1652.025391	749664.937500
-32.255707	-9.485292	1651.026367	751603.812500
-32.255707	-9.485292	1650.027344	751396.750000
-32.255707	-9.485292	1649.028320	751953.062500
-32.255707	-9.485292	1648.029297	753663.562500
-32.255707	-9.485292	1647.029297	752584.812500
-32.255707	-9.485292	1646.029297	756858.437500
-32.255707	-9.485292	1645.030273	755193.812500
-32.255707	-9.485292	1644.029297	757836.750000
-32.255707	-9.485292	1643.029297	760795.687500
-32.255707	-9.485292	1642.028320	761292.250000
-32.255707	-9.485292	1641.028320	762875.062500
-32.255707	-9.485292	1640.027344	762849.875000
-32.255707	-9.485292	1639.025391	767193.375000
-32.255707	-9.485292	1638.024414	765322.312500
-32.255707	-9.485292	1637.022461	768130.750000
-32.255707	-9.485292	1636.020508	772062.625000
-32.255707	-9.485292	1635.018555	773017.250000
-32.255707	-9.485292	1634.016602	773973.937500
-32.255707	-9.485292	1633.014648	776319.125000
-32.255707	-9.485292	1632.011719	776477.187500
-32.255707	-9.485292	1631.008789	777398.062500
-32.255707	-9.485292	1630.005859	778343.000000
-32.255707	-9.485292	1629.001953	778181.625000
-32.255707	-9.485292	1627.999023	779736.312500
-32.255707	-9.485292	1626.995117	782670.062500
-32.255707	-9.485292	1625.991211	784142.187500
-32.255707	-9.485292	1624.987305	786260.312500
-32.255707	-9.485292	1623.982422	786141.312500
-32.255707	-9.485292	1622.977539	789386.937500
-32.255707	-9.485292	1621.973633	789232.937500
-32.255707	-9.485292	1620.967773	790016.437500
-32.255707	-9.485292	1619.962891	793454.875000
-32.255707	-9.485292	1618.958008	797072.812500
-32.255707	-9.485292	1617.952148	798761.562500
-32.255707	-9.485292	1616.946289	799686.437500
-32.255707	-9.485292	1615.940430	804168.687500
-32.255707	-9.485292	1614.933594	805287.562500
-32.255707	-9.485292	1613.927734	805281.562500
-32.255707	-9.485292	1612.920898	807665.375000
-32.255707	-9.485292	1611.914062	808714.187500
-32.255707	-9.485292	1610.906250	811877.812500
-32.255707	-9.485292	1609.899414	811252.375000
-32.255707	-9.485292	1608.891602	810737.000000
-32.255707	-9.485292	1607.883789	814549.812500
-32.255707	-9.485292	1606.875977	815334.625000
-32.255707	-9.485292	1605.868164	818154.062500
-32.255707	-9.485292	1604.859375	818335.125000
-32.255707	-9.485292	1603.850586	819262.437500
-32.255707	-9.485292	1602.841797	819794.187500
-32.255707	-9.485292	1601.833008	819323.687500
-32.255707	-9.485292	1600.824219	822078.062500
-32.255707	-9.485292	1599.814453	824088.000000
-32.255707	-9.485292	1598.804688	827702.625000
-32.255707	-9.485292	1597.794922	827418.125000
-32.255707	-9.485292	1596.784180	827903.312500
-32.255707	-9.485292	1595.774414	829023.750000
-32.255707	-9.485292	1594.763672	829588.625000
-32.255707	-9.485292	1593.752930	831221.687500
-32.255707	-9.485292	1592.742188	830751.562500
-32.255707	-9.485292	1591.730469	830342.375000
-32.255707	-9.485292	1590.719727	833528.250000
-32.255707	-9.485292	1589.708008	838322.625000
-32.255707	-9.485292	1588.696289	840484.250000
-32.255707	-9.485292	1587.684570	841113.500000
-32.255707	-9.485292	1586.671875	843659.875000
-32.255707	-9.485292	1585.659180	842040.562500
-32.255707	-9.485292	1584.646484	846103.812500
-32.255707	-9.485292	1583.633789	846323.062500
-32.255707	-9.485292	1582.621094	847268.187500
-32.255707	-9.485292	1581.607422	848103.625000
-32.255707	-9.485292	1580.593750	850006.562500
-32.255707	-9.485292	1579.580078	851452.437500
-32.255707	-9.485292	1578.566406	850811.125000
-32.255707	-9.485292	1577.551758	853883.687500
-32.255707	-9.485292	1576.538086	858169.875000
-32.255707	-9.485292	1575.523438	855776.812500
-32.255707	-9.485292	1574.508789	860819.437500
-32.255707	-9.485292	1573.493164	862011.125000
-32.255707	-9.485292	1572.478516	862172.500000
-32.255707	-9.485292	1571.462891	864506.750000
-32.255707	-9.485292	1570.447266	866413.687500
-32.255707	-9.485292	1569.430664	866992.750000
-32.255707	-9.485292	1568.415039	868341.375000
-32.255707	-9.485292	1567.398438	870810.062500
-32.255707	-9.485292	1566.381836	871586.062500
-32.255707	-9.485292	1565.365234	876544.937500
-32.255707	-9.485292	1564.348633	877391.812500
-32.255707	-9.485292	1563.331055	877909.312500
-32.255707	-9.485292	1562.313477	879575.125000
-32.255707	-9.485292	1561.295898	882224.000000
-32.255707	-9.485292	1560.278320	883931.562500
-32.255707	-9.485292	1559.260742	887119.500000
-32.255707	-9.485292	1558.242188	890004.062500
-32.255707	-9.485292	1557.223633	895416.250000
-32.255707	-9.485292	1556.205078	897454.937500
-32.255707	-9.485292	1555.185547	899528.875000
-32.255707	-9.485292	1554.166992	904949.812500
-32.255707	-9.485292	1553.147461	905539.375000
-32.255707	-9.485292	1552.127930	906044.187500
-32.255707	-9.485292	1551.108398	910714.687500
-32.255707	-9.485292	1550.087891	910390.812500
-32.255707	-9.485292	1549.068359	912362.437500
-32.255707	-9.485292	1548.047852	913455.687500
-32.255707	-9.485292	1547.027344	914775.000000
-32.255707	-9.485292	1546.005859	913495.937500
-32.255707	-9.485292	1544.985352	914985.562500
-32.255707	-9.485292	1543.963867	919087.937500
-32.255707	-9.485292	1542.942383	920310.687500
-32.255707	-9.485292	1541.920898	921951.750000
-32.255707	-9.485292	1540.898438	928254.750000
-32.255707	-9.485292	1539.875977	932771.687500
-32.255707	-9.485292	1538.853516	938968.437500
-32.255707	-9.485292	1537.831055	943180.312500
-32.255707	-9.485292	1536.808594	947347.000000
-32.255707	-9.485292	1535.785156	953185.437500
-32.255707	-9.485292	1534.762695	959167.937500
-32.255707	-9.485292	1533.738281	963595.125000
-32.255707	-9.485292	1532.714844	967518.125000
-32.255707	-9.485292	1531.691406	973361.375000
-32.255707	-9.485292	1530.666992	980170.125000
-32.255707	-9.485292	1529.642578	984816.875000
-32.255707	-9.485292	1528.618164	991147.125000
-32.255707	-9.485292	1527.593750	995201.250000
-32.255707	-9.485292	1526.568359	997662.437500
-32.255707	-9.485292	1525.542969	999189.062500
-32.255707	-9.485292	1524.517578	999520.250000
-32.255707	-9.485292	1523.492188	1002384.062500
-32.255707	-9.485292	1522.465820	999438.687500
-32.255707	-9.485292	1521.440430	998458.000000
-32.255707	-9.485292	1520.414062	995878.937500
-32.255707	-9.485292	1519.386719	990557.000000
-32.255707	-9.485292	1518.360352	989058.687500
-32.255707	-9.485292	1517.333008	984468.500000
-32.255707	-9.485292	1516.306641	980840.500000
-32.255707	-9.485292	1515.278320	977276.312500
-32.255707	-9.485292	1514.250977	976164.812500
-32.255707	-9.485292	1513.223633	974074.812500
-32.255707	-9.485292	1512.195312	970234.125000
-32.255707	-9.485292	1511.166992	969574.375000
-32.255707	-9.485292	1510.138672	967623.250000
-32.255707	-9.485292	1509.109375	967841.750000
-32.255707	-9.485292	1508.081055	963579.812500
-32.255707	-9.485292	1507.051758	962491.500000
-32.255707	-9.485292	1506.022461	964992.937500
-32.255707	-9.485292	1504.992188	965194.750000
-32.255707	-9.485292	1503.962891	961225.750000
-32.255707	-9.485292	1502.932617	963271.875000
-32.255707	-9.485292	1501.902344	966678.000000
-32.255707	-9.485292	1500.872070	968127.500000
-32.255707	-9.485292	1499.840820	970454.562500
-32.255707	-9.485292	1498.810547	966738.812500
-32.255707	-9.485292	1497.779297	972922.625000
-32.255707	-9.485292	1496.748047	972778.312500
-32.255707	-9.485292	1495.715820	974875.562500
-32.255707	-9.485292	1494.684570	977894.437500
-32.255707	-9.485292	1493.652344	980006.250000
-32.255707	-9.485292	1492.620117	982543.562500
-32.255707	-9.485292	1491.586914	986578.375000
-32.255707	-9.485292	1490.554688	986659.500000
-32.255707	-9.485292	1489.521484	990489.125000
-32.255707	-9.485292	1488.488281	990840.625000
-32.255707	-9.485292	1487.455078	989830.312500
-32.255707	-9.485292	1486.421875	992242.750000
-32.255707	-9.485292	1485.387695	994068.750000
-32.255707	-9.485292	1484.353516	997352.187500
-32.255707	-9.485292	1483.319336	999259.375000
-32.255707	-9.485292	1482.285156	994397.937500
-32.255707	-9.485292	1481.250000	998670.312500
-32.255707	-9.485292	1480.214844	1002617.500000
-32.255707	-9.485292	1479.179688	1004120.000000
-32.255707	-9.485292	1478.144531	1004802.000000
-32.255707	-9.485292	1477.109375	1005866.062500
-32.255707	-9.485292	1476.073242	1008561.187500
-32.255707	-9.485292	1475.037109	1008412.875000
-32.255707	-9.485292	1474.000977	1012091.250000
-32.255707	-9.485292	1472.964844	1012594.750000
-32.255707	-9.485292	1471.927734	1015945.375000
-32.255707	-9.485292	1470.890625	1018473.687500
-32.255707	-9.485292	1469.853516	1020078.125000
-32.255707	-9.485292	1468.816406	1020787.812500
-32.255707	-9.485292	1467.778320	1024396.625000
-32.255707	-9.485292	1466.741211	1027612.687500
-32.255707	-9.485292	1465.703125	1031839.125000
-32.255707	-9.485292	1464.664062	1033848.437500
-32.255707	-9.485292	1463.625977	1038796.375000
-32.255707	-9.485292	1462.586914	1040952.375000
-32.255707	-9.485292	1461.547852	1038274.687500
-32.255707	-9.485292	1460.508789	1042174.312500
-32.255707	-9.485292	1459.469727	1044479.312500
-32.255707	-9.485292	1458.429688	1049355.250000
-32.255707	-9.485292	1457.389648	1050716.000000
-32.255707	-9.485292	1456.349609	1057409.625000
-32.255707	-9.485292	1455.309570	1059924.125000
-32.255707	-9.485292	1454.269531	1064319.375000
-32.255707	-9.485292	1453.228516	1070549.250000
-32.255707	-9.485292	1452.187500	1072354.875000
-32.255707	-9.485292	1451.146484	1076101.625000
-32.255707	-9.485292	1450.104492	1083260.000000
-32.255707	-9.485292	1449.063477	1086079.250000
-32.255707	-9.485292	1448.021484	1088193.625000
-32.255707	-9.485292	1446.979492	1091659.500000
-32.255707	-9.485292	1445.936523	1094583.375000
-32.255707	-9.485292	1444.894531	1103291.625000
-32.255707	-9.485292	1443.851562	1105211.250000
-32.255707	-9.485292	1442.808594	1107884.750000
-32.255707	-9.485292	1441.765625	1108623.250000
-32.255707	-9.485292	1440.721680	1115314.250000
-32.255707	-9.485292	1439.677734	1119350.625000
-32.255707	-9.485292	1438.633789	1120293.375000
-32.255707	-9.485292	1437.589844	1124277.125000
-32.255707	-9.485292	1436.545898	1126539.625000
-32.255707	-9.485292	1435.500977	1129293.250000
-32.255707	-9.485292	1434.456055	1132777.750000
-32.255707	-9.485292	1433.411133	1135707.500000
-32.255707	-9.485292	1432.366211	1132714.625000
-32.255707	-9.485292	1431.320312	1135520.500000
-32.255707	-9.485292	1430.274414	1143867.375000
-32.255707	-9.485292	1429.228516	1147052.875000
-32.255707	-9.485292	1428.182617	1149468.000000
-32.255707	-9.485292	1427.135742	1152859.875000
-32.255707	-9.485292	1426.089844	1159209.250000
-32.255707	-9.485292	1425.042969	1158915.125000
-32.255707	-9.485292	1423.995117	1162722.875000
-32.255707	-9.485292	1422.948242	1161152.500000
-32.255707	-9.485292	1421.900391	1165864.375000
-32.255707	-9.485292	1420.852539	1171243.375000
-32.255707	-9.485292	1419.804688	1173904.000000
-32.255707	-9.485292	1418.756836	1179874.750000
-32.255707	-9.485292	1417.708008	1182916.875000
-32.255707	-9.485292	1416.659180	1184681.500000
-32.255707	-9.485292	1415.610352	1190085.125000
-32.255707	-9.485292	1414.561523	1191844.875000
-32.255707	-9.485292	1413.511719	1195601.125000
-32.255707	-9.485292	1412.461914	1194853.250000
-32.255707	-9.485292	1411.412109	1196943.250000
-32.255707	-9.485292	1410.362305	1201941.875000
-32.255707	-9.485292	1409.312500	1207366.875000
-32.255707	-9.485292	1408.261719	1206909.250000
-32.255707	-9.485292	1407.210938	1211794.500000
-32.255707	-9.485292	1406.160156	1211516.250000
-32.255707	-9.485292	1405.108398	1217189.000000
-32.255707	-9.485292	1404.057617	1218884.125000
-32.255707	-9.485292	1403.005859	1221822.875000
-32.255707	-9.485292	1401.954102	1224678.250000
-32.255707	-9.485292	1400.901367	1226108.500000
-32.255707	-9.485292	1399.849609	1232549.750000
-32.255707	-9.485292	1398.796875	1237282.000000
-32.255707	-9.485292	1397.744141	1238222.125000
-32.255707	-9.485292	1396.690430	1245301.000000
-32.255707	-9.485292	1395.637695	1244013.000000
-32.255707	-9.485292	1394.583984	1249476.000000
-32.255707	-9.485292	1393.530273	1253837.000000
-32.255707	-9.485292	1392.476562	1253273.500000
-32.255707	-9.485292	1391.421875	1256061.125000
-32.255707	-9.485292	1390.368164	1257855.750000
-32.255707	-9.485292	1389.313477	1258369.000000
-32.255707	-9.485292	1388.257812	1267818.125000
-32.255707	-9.485292	1387.203125	1267386.875000
-32.255707	-9.485292	1386.147461	1264400.875000
-32.255707	-9.485292	1385.091797	1266752.750000
-32.255707	-9.485292	1384.036133	1269721.125000
-32.255707	-9.485292	1382.980469	1270377.125000
-32.255707	-9.485292	1381.923828	1267779.250000
-32.255707	-9.485292	1380.867188	1275099.125000
-32.255707	-9.485292	1379.810547	1271795.750000
-32.255707	-9.485292	1378.753906	1276299.750000
-32.255707	-9.485292	1377.696289	1280129.250000
-32.255707	-9.485292	1376.638672	1276701.000000
-32.255707	-9.485292	1375.581055	1275453.375000
-32.255707	-9.485292	1374.523438	1277989.625000
-32.255707	-9.485292	1373.465820	1280513.000000
-32.255707	-9.485292	1372.407227	1277596.250000
-32.255707	-9.485292	1371.348633	1277759.625000
-32.255707	-9.485292	1370.290039	1277534.875000
-32.255707	-9.485292	1369.230469	1279045.250000
-32.255707	-9.485292	1368.170898	1277805.250000
-32.255707	-9.485292	1367.111328	1279537.500000
-32.255707	-9.485292	1366.051758	1279866.875000
-32.255707	-9.485292	1364.992188	1277828.750000
-32.255707	-9.485292	1363.931641	1276895.875000
-32.255707	-9.485292	1362.871094	1275696.500000
-32.255707	-9.485292	1361.810547	1271932.500000
-32.255707	-9.485292	1360.750000	1272053.875000
-32.255707	-9.485292	1359.688477	1270348.375000
-32.255707	-9.485292	1358.626953	1271037.625000
-32.255707	-9.485292	1357.565430	1273109.875000
-32.255707	-9.485292	1356.503906	1271184.750000
-32.255707	-9.485292	1355.441406	1266367.500000
-32.255707	-9.485292	1354.378906	1266496.125000
-32.255707	-9.485292	1353.316406	1260457.125000
-32.255707	-9.485292	1352.253906	1256103.250000
-32.255707	-9.485292	1351.191406	1251550.000000
-32.255707	-9.485292	1350.127930	1249057.625000
-32.255707	-9.485292	1349.064453	1242509.125000
-32.255707	-9.485292	1348.000000	1238079.375000
-32.255707	-9.485292	1346.936523	1238275.750000
-32.255707	-9.485292	1345.872070	1233354.000000
-32.255707	-9.485292	1344.807617	1228702.375000
-32.255707	-9.485292	1343.743164	1222902.000000
-32.255707	-9.485292	1342.678711	1217416.000000
-32.255707	-9.485292	1341.613281	1213084.750000
-32.255707	-9.485292	1340.547852	1210390.125000
-32.255707	-9.485292	1339.482422	1207117.000000
-32.255707	-9.485292	1338.416016	1196492.000000
-32.255707	-9.485292	1337.350586	1194358.500000
-32.255707	-9.485292	1336.284180	1189909.750000
-32.255707	-9.485292	1335.217773	1181860.000000
-32.255707	-9.485292	1334.150391	1177992.125000
-32.255707	-9.485292	1333.083984	1174990.375000
-32.255707	-9.485292	1332.016602	1170413.375000
-32.255707	-9.485292	1330.949219	1170179.750000
-32.255707	-9.485292	1329.880859	1167158.500000
-32.255707	-9.485292	1328.813477	1165324.625000
-32.255707	-9.485292	1327.745117	1160845.375000
-32.255707	-9.485292	1326.676758	1155076.375000
-32.255707	-9.485292	1325.607422	1146421.000000
-32.255707	-9.485292	1324.539062	1135898.250000
-32.255707	-9.485292	1323.469727	1125594.000000
-32.255707	-9.485292	1322.400391	1110790.125000
-32.255707	-9.485292	1321.331055	1101229.500000
-32.255707	-9.485292	1320.260742	1089233.250000
-32.255707	-9.485292	1319.190430	1082941.250000
-32.255707	-9.485292	1318.120117	1073220.375000
-32.255707	-9.485292	1317.049805	1062580.125000
-32.255707	-9.485292	1315.978516	1059222.375000
-32.255707	-9.485292	1314.908203	1050562.625000
-32.255707	-9.485292	1313.836914	1047814.937500
-32.255707	-9.485292	1312.764648	1036939.062500
-32.255707	-9.485292	1311.693359	1032357.000000
-32.255707	-9.485292	1310.621094	1026539.937500
-32.255707	-9.485292	1309.548828	1020991.500000
-32.255707	-9.485292	1308.476562	1010312.062500
-32.255707	-9.485292	1307.404297	1005239.625000
-32.255707	-9.485292	1306.331055	1001042.875000
-32.255707	-9.485292	1305.257812	997746.500000
-32.255707	-9.485292	1304.184570	990622.000000
-32.255707	-9.485292	1303.110352	983292.062500
-32.255707	-9.485292	1302.037109	977552.750000
-32.255707	-9.485292	1300.962891	970066.187500
-32.255707	-9.485292	1299.887695	963313.312500
-32.255707	-9.485292	1298.813477	956989.125000
-32.255707	-9.485292	1297.738281	953004.312500
-32.255707	-9.485292	1296.663086	945529.562500
-32.255707	-9.485292	1295.587891	943218.875000
-32.255707	-9.485292	1294.512695	940755.937500
-32.255707	-9.485292	1293.436523	938088.250000
-32.255707	-9.485292	1292.360352	935241.000000
-32.255707	-9.485292	1291.284180	931809.812500
-32.255707	-9.485292	1290.208008	928496.625000
-32.255707	-9.485292	1289.130859	924133.937500
-32.255707	-9.485292	1288.053711	917559.812500
-32.255707	-9.485292	1286.976562	917583.437500
-32.255707	-9.485292	1285.899414	911821.750000
-32.255707	-9.485292	1284.821289	908520.812500
-32.255707	-9.485292	1283.743164	904144.187500
-32.255707	-9.485292	1282.665039	899272.000000
-32.255707	-9.485292	1281.586914	890909.750000
-32.255707	-9.485292	1280.507812	888229.562500
-32.255707	-9.485292	1279.429688	883642.125000
-32.255707	-9.485292	1278.349609	881229.000000
-32.255707	-9.485292	1277.270508	874279.437500
-32.255707	-9.485292	1276.190430	874332.312500
-32.255707	-9.485292	1275.111328	869621.875000
-32.255707	-9.485292	1274.031250	868940.000000
-32.255707	-9.485292	1272.950195	869187.375000
-32.255707	-9.485292	1271.870117	864740.500000
-32.255707	-9.485292	1270.789062	863891.500000
-32.255707	-9.485292	1269.708008	863636.687500
-32.255707	-9.485292	1268.625977	858543.250000
-32.255707	-9.485292	1267.544922	858646.625000
-32.255707	-9.485292	1266.462891	855455.062500
-32.255707	-9.485292	1265.380859	853060.500000
-32.255707	-9.485292	1264.298828	851873.875000
-32.255707	-9.485292	1263.215820	853646.250000
-32.255707	-9.485292	1262.132812	850035.750000
-32.255707	-9.485292	1261.049805	847560.250000
-32.255707	-9.485292	1259.966797	846321.000000
-32.255707	-9.485292	1258.882812	842789.312500
-32.255707	-9.485292	1257.799805	839649.500000
-32.255707	-9.485292	1256.715820	839295.375000
-32.255707	-9.485292	1255.630859	834583.062500
-32.255707	-9.485292	1254.546875	834080.437500
-32.255707	-9.485292	1253.461914	831441.687500
-32.255707	-9.485292	1252.376953	833184.375000
-32.255707	-9.485292	1251.291016	833362.187500
-32.255707	-9.485292	1250.206055	830750.062500
-32.255707	-9.485292	1249.120117	829550.562500
-32.255707	-9.485292	1248.034180	825293.562500
-32.255707	-9.485292	1246.948242	823309.812500
-32.255707	-9.485292	1245.861328	824347.375000
-32.255707	-9.485292	1244.774414	823831.437500
-32.255707	-9.485292	1243.687500	822209.000000
-32.255707	-9.485292	1242.600586	824001.562500
-32.255707	-9.485292	1241.513672	824429.187500
-32.255707	-9.485292	1240.425781	824800.000000
-32.255707	-9.485292	1239.337891	823280.187500
-32.255707	-9.485292	1238.249023	821530.437500
-32.255707	-9.485292	1237.161133	822299.187500
-32.255707	-9.485292	1236.072266	821388.625000
-32.255707	-9.485292	1234.983398	818797.562500
-32.255707	-9.485292	1233.894531	819990.812500
-32.255707	-9.485292	1232.804688	819724.625000
-32.255707	-9.485292	1231.714844	821998.312500
-32.255707	-9.485292	1230.625000	825137.625000
-32.255707	-9.485292	1229.535156	825944.437500
-32.255707	-9.485292	1228.444336	826741.687500
-32.255707	-9.485292	1227.353516	823656.812500
-32.255707	-9.485292	1226.262695	823414.500000
-32.255707	-9.485292	1225.171875	821727.125000
-32.255707	-9.485292	1224.080078	822758.750000
-32.255707	-9.485292	1222.989258	818762.250000
-32.255707	-9.485292	1221.897461	817962.250000
-32.255707	-9.485292	1220.804688	817250.375000
-32.255707	-9.485292	1219.712891	817171.562500
-32.255707	-9.485292	1218.620117	813051.312500
-32.255707	-9.485292	1217.527344	815474.125000
-32.255707	-9.485292	1216.433594	810885.562500
-32.255707	-9.485292	1215.340820	810715.687500
-32.255707	-9.485292	1214.247070	808528.062500
-32.255707	-9.485292	1213.153320	808068.500000
-32.255707	-9.485292	1212.058594	804728.875000
-32.255707	-9.485292	1210.964844	804877.187500
-32.255707	-9.485292	1209.870117	805472.562500
-32.255707	-9.485292	1208.775391	804139.812500
-32.255707	-9.485292	1207.679688	800846.437500
-32.255707	-9.485292	1206.584961	797895.875000
-32.255707	-9.485292	1205.489258	797474.812500
-32.255707	-9.485292	1204.393555	796506.187500
-32.255707	-9.485292	1203.296875	793578.562500
-32.255707	-9.485292	1202.201172	794980.562500
-32.255707	-9.485292	1201.104492	792420.125000
-32.255707	-9.485292	1200.007812	792785.437500
-32.255707	-9.485292	1198.910156	794244.687500
-32.255707	-9.485292	1197.813477	792930.125000
-32.255707	-9.485292	1196.715820	796356.437500
-32.255707	-9.485292	1195.618164	796274.312500
-32.255707	-9.485292	1194.519531	795880.687500
-32.255707	-9.485292	1193.420898	794774.937500
-32.255707	-9.485292	1192.322266	795575.250000
-32.255707	-9.485292	1191.223633	796740.000000
-32.255707	-9.485292	1190.125000	798486.125000
-32.255707	-9.485292	1189.025391	795670.875000
-32.255707	-9.485292	1187.925781	797995.687500
-32.255707	-9.485292	1186.826172	796644.500000
-32.255707	-9.485292	1185.725586	798120.375000
-32.255707	-9.485292	1184.625977	795043.625000
-32.255707	-9.485292	1183.525391	794699.625000
-32.255707	-9.485292	1182.423828	791055.062500
-32.255707	-9.485292	1181.323242	787248.937500
-32.255707	-9.485292	1180.221680	784827.187500
-32.255707	-9.485292	1179.120117	784771.312500
-32.255707	-9.485292	1178.018555	781449.062500
-32.255707	-9.485292	1176.916016	781396.062500
-32.255707	-9.485292	1175.814453	776130.000000
-32.255707	-9.485292	1174.711914	775355.187500
-32.255707	-9.485292	1173.608398	773032.687500
-32.255707	-9.485292	1172.505859	770992.125000
-32.255707	-9.485292	1171.402344	769206.562500
-32.255707	-9.485292	1170.298828	767152.062500
-32.255707	-9.485292	1169.194336	766310.750000
-32.255707	-9.485292	1168.090820	764580.750000
-32.255707	-9.485292	1166.986328	765711.687500
-32.255707	-9.485292	1165.881836	768392.062500
-32.255707	-9.485292	1164.777344	771796.937500
-32.255707	-9.485292	1163.671875	772811.687500
-32.255707	-9.485292	1162.566406	780035.125000
-32.255707	-9.485292	1161.460938	785377.312500
-32.255707	-9.485292	1160.354492	792576.625000
-32.255707	-9.485292	1159.249023	797831.000000
-32.255707	-9.485292	1158.142578	802235.812500
-32.255707	-9.485292	1157.036133	802961.625000
-32.255707	-9.485292	1155.928711	800140.000000
-32.255707	-9.485292	1154.822266	795662.000000
-32.255707	-9.485292	1153.714844	788242.500000
-32.255707	-9.485292	1152.606445	783724.687500
-32.255707	-9.485292	1151.499023	778416.187500
-32.255707	-9.485292	1150.390625	770963.312500
-32.255707	-9.485292	1149.282227	765597.812500
-32.255707	-9.485292	1148.173828	766197.000000
-32.255707	-9.485292	1147.064453	761374.000000
-32.255707	-9.485292	1145.956055	761084.312500
-32.255707	-9.485292	1144.846680	759125.000000
-32.255707	-9.485292	1143.736328	757104.437500
-32.255707	-9.485292	1142.626953	756554.187500
-32.255707	-9.485292	1141.516602	757176.312500
-32.255707	-9.485292	1140.406250	751070.000000
-32.255707	-9.485292	1139.295898	746242.187500
-32.255707	-9.485292	1138.184570	741919.125000
-32.255707	-9.485292	1137.073242	738884.312500
-32.255707	-9.485292	1135.961914	737245.125000
-32.255707	-9.485292	1134.850586	735407.500000
-32.255707	-9.485292	1133.738281	731811.875000
-32.255707	-9.485292	1132.625977	733689.875000
-32.255707	-9.485292	1131.513672	728543.812500
-32.255707	-9.485292	1130.400391	727784.000000
-32.255707	-9.485292	1129.288086	727720.750000
-32.255707	-9.485292	1128.174805	724711.875000
-32.255707	-9.485292	1127.061523	723898.062500
-32.255707	-9.485292	1125.947266	722737.750000
-32.255707	-9.485292	1124.833008	723024.375000
-32.255707	-9.485292	1123.718750	720160.312500
-32.255707	-9.485292	1122.604492	719842.437500
-32.255707	-9.485292	1121.490234	720398.500000
-32.255707	-9.485292	1120.375000	719438.625000
-32.255707	-9.485292	1119.259766	719718.687500
-32.255707	-9.485292	1118.144531	720091.187500
-32.255707	-9.485292	1117.028320	720785.312500
-32.255707	-9.485292	1115.912109	719684.812500
-32.255707	-9.485292	1114.795898	718271.875000
-32.255707	-9.485292	1113.679688	719904.312500
-32.255707	-9.485292	1112.562500	718441.125000
-32.255707	-9.485292	1111.445312	716725.312500
-32.255707	-9.485292	1110.328125	715536.437500
-32.255707	-9.485292	1109.210938	715173.500000
-32.255707	-9.485292	1108.092773	713411.000000
-32.255707	-9.485292	1106.974609	710729.625000
-32.255707	-9.485292	1105.856445	710403.000000
-32.255707	-9.485292	1104.737305	708156.625000
-32.255707	-9.485292	1103.619141	705289.000000
-32.255707	-9.485292	1102.500000	707403.562500
-32.255707	-9.485292	1101.379883	700295.937500
-32.255707	-9.485292	1100.260742	704157.187500
-32.255707	-9.485292	1099.140625	701508.187500
-32.255707	-9.485292	1098.020508	699321.437500
-32.255707	-9.485292	1096.900391	698268.625000
-32.255707	-9.485292	1095.779297	695550.125000
-32.255707	-9.485292	1094.658203	694856.187500
-32.255707	-9.485292	1093.537109	694987.500000
-32.255707	-9.485292	1092.416016	694844.500000
-32.255707	-9.485292	1091.293945	691525.937500
-32.255707	-9.485292	1090.171875	690894.687500
-32.255707	-9.485292	1089.049805	692315.437500
-32.255707	-9.485292	1087.926758	690641.062500
-32.255707	-9.485292	1086.804688	686962.562500
-32.255707	-9.485292	1085.681641	688838.687500
-32.255707	-9.485292	1084.557617	688858.937500
-32.255707	-9.485292	1083.434570	687261.062500
-32.255707	-9.485292	1082.310547	686084.125000
-32.255707	-9.485292	1081.186523	682644.812500
-32.255707	-9.485292	1080.062500	683346.687500
-32.255707	-9.485292	1078.937500	682702.812500
-32.255707	-9.485292	1077.812500	682772.187500
-32.255707	-9.485292	1076.687500	681249.687500
-32.255707	-9.485292	1075.562500	681052.562500
-32.255707	-9.485292	1074.436523	681493.562500
-32.255707	-9.485292	1073.310547	679718.812500
-32.255707	-9.485292	1072.184570	679122.187500
-32.255707	-9.485292	1071.058594	680015.250000
-32.255707	-9.485292	1069.931641	680296.437500
-32.255707	-9.485292	1068.804688	679095.250000
-32.255707	-9.485292	1067.677734	678481.625000
-32.255707	-9.485292	1066.549805	678542.437500
-32.255707	-9.485292	1065.421875	677924.750000
-32.255707	-9.485292	1064.293945	674694.562500
-32.255707	-9.485292	1063.166016	675131.062500
-32.255707	-9.485292	1062.038086	673882.250000
-32.255707	-9.485292	1060.909180	673880.500000
-32.255707	-9.485292	1059.780273	673216.375000
-32.255707	-9.485292	1058.650391	671739.937500
-32.255707	-9.485292	1057.520508	672248.125000
-32.255707	-9.485292	1056.391602	672355.437500
-32.255707	-9.485292	1055.260742	671796.500000
-32.255707	-9.485292	1054.130859	672463.000000
-32.255707	-9.485292	1053.000000	675694.437500
-32.255707	-9.485292	1051.869141	673079.250000
-32.255707	-9.485292	1050.738281	673466.500000
-32.255707	-9.485292	1049.606445	672301.000000
-32.255707	-9.485292	1048.474609	673855.375000
-32.255707	-9.485292	1047.342773	673135.750000
-32.255707	-9.485292	1046.210938	671886.250000
-32.255707	-9.485292	1045.078125	669362.062500
-32.255707	-9.485292	1043.946289	670296.500000
-32.255707	-9.485292	1042.812500	668429.500000
-32.255707	-9.485292	1041.679688	666643.625000
-32.255707	-9.485292	1040.545898	665234.000000
-32.255707	-9.485292	1039.412109	665142.000000
-32.255707	-9.485292	1038.278320	663598.750000
-32.255707	-9.485292	1037.143555	663042.937500
-32.255707	-9.485292	1036.009766	664276.125000
-32.255707	-9.485292	1034.875000	657182.375000
-32.255707	-9.485292	1033.739258	660139.187500
-32.255707	-9.485292	1032.604492	659863.937500
-32.255707	-9.485292	1031.468750	661105.125000
-32.255707	-9.485292	1030.333008	659447.937500
-32.255707	-9.485292	1029.196289	659828.937500
-32.255707	-9.485292	1028.060547	657785.250000
-32.255707	-9.485292	1026.923828	657664.250000
-32.255707	-9.485292	1025.786133	658034.437500
-32.255707	-9.485292	1024.649414	658131.750000
-32.255707	-9.485292	1023.511719	656347.500000
-32.255707	-9.485292	1022.374023	656951.000000
-32.255707	-9.485292	1021.236328	658187.562500
-32.255707	-9.485292	1020.097656	659423.500000
-32.255707	-9.485292	1018.958984	658874.062500
-32.255707	-9.485292	1017.820312	656652.875000
-32.255707	-9.485292	1016.681641	658050.125000
-32.255707	-9.485292	1015.541992	657501.250000
-32.255707	-9.485292	1014.402344	659225.562500
-32.255707	-9.485292	1013.262695	658549.250000
-32.255707	-9.485292	1012.122070	661299.437500
-32.255707	-9.485292	1010.982422	662415.375000
-32.255707	-9.485292	1009.841797	665428.562500
-32.255707	-9.485292	1008.700195	666232.437500
-32.255707	-9.485292	1007.559570	667281.562500
-32.255707	-9.485292	1006.417969	667336.625000
-32.255707	-9.485292	1005.276367	668016.500000
-32.255707	-9.485292	1004.133789	669204.312500
-32.255707	-9.485292	1002.992188	669319.062500
-32.255707	-9.485292	1001.849609	668555.187500
-32.255707	-9.485292	1000.706055	667985.375000
-32.255707	-9.485292	999.563477	665627.312500
-32.255707	-9.485292	998.419922	666095.437500
-32.255707	-9.485292	997.276367	663747.437500
-32.255707	-9.485292	996.132812	665002.687500
-32.255707	-9.485292	994.988281	662957.000000
-32.255707	-9.485292	993.843750	664435.312500
-32.255707	-9.485292	992.699219	664367.687500
-32.255707	-9.485292	991.554688	664216.250000
-32.255707	-9.485292	990.409180	663725.437500
-32.255707	-9.485292	989.263672	663851.125000
-32.255707	-9.485292	988.118164	667555.875000
-32.255707	-9.485292	986.971680	665667.000000
-32.255707	-9.485292	985.825195	666536.687500
-32.255707	-9.485292	984.678711	666002.687500
-32.255707	-9.485292	983.532227	662695.375000
-32.255707	-9.485292	982.384766	660491.812500
-32.255707	-9.485292	981.237305	660154.500000
-32.255707	-9.485292	980.089844	657390.875000
-32.255707	-9.485292	978.942383	659853.187500
-32.255707	-9.485292	977.793945	658286.312500
-32.255707	-9.485292	976.645508	655760.500000
-32.255707	-9.485292	975.497070	657004.875000
-32.255707	-9.485292	974.347656	656925.500000
-32.255707	-9.485292	973.198242	655465.437500
-32.255707	-9.485292	972.048828	654170.812500
-32.255707	-9.485292	970.899414	654395.750000
-32.255707	-9.485292	969.749023	657341.375000
-32.255707	-9.485292	968.598633	651500.562500
-32.255707	-9.485292	967.448242	654592.875000
-32.255707	-9.485292	966.297852	653436.500000
-32.255707	-9.485292	965.146484	655947.625000
-32.255707	-9.485292	963.995117	656212.125000
-32.255707	-9.485292	962.842773	653686.812500
-32.255707	-9.485292	961.691406	655151.750000
-32.255707	-9.485292	960.539062	653048.375000
-32.255707	-9.485292	959.386719	656533.937500
-32.255707	-9.485292	958.233398	653127.250000
-32.255707	-9.485292	957.081055	655320.375000
-32.255707	-9.485292	955.927734	651955.937500
-32.255707	-9.485292	954.773438	653819.750000
-32.255707	-9.485292	953.620117	654053.812500
-32.255707	-9.485292	952.465820	654010.625000
-32.255707	-9.485292	951.311523	653147.000000
-32.255707	-9.485292	950.156250	651934.250000
-32.255707	-9.485292	949.001953	652249.250000
-32.255707	-9.485292	947.846680	650521.937500
-32.255707	-9.485292	946.690430	651899.312500
-32.255707	-9.485292	945.535156	651577.562500
-32.255707	-9.485292	944.378906	651545.250000
-32.255707	-9.485292	943.222656	650823.625000
-32.255707	-9.485292	942.066406	651765.562500
-32.255707	-9.485292	940.909180	653074.875000
-32.255707	-9.485292	939.751953	652040.687500
-32.255707	-9.485292	938.594727	650686.000000
-32.255707	-9.485292	937.437500	650623.875000
-32.255707	-9.485292	936.279297	651747.187500
-32.255707	-9.485292	935.121094	650465.625000
-32.255707	-9.485292	933.962891	652664.875000
-32.255707	-9.485292	932.803711	651791.187500
-32.255707	-9.485292	931.644531	653783.125000
-32.255707	-9.485292	930.485352	652047.937500
-32.255707	-9.485292	929.326172	652528.312500
-32.255707	-9.485292	928.166016	654467.562500
-32.255707	-9.485292	927.005859	654385.125000
-32.255707	-9.485292	925.845703	656221.187500
-32.255707	-9.485292	924.684570	658126.250000
-32.255707	-9.485292	923.523438	657966.562500
-32.255707	-9.485292	922.362305	658741.062500
-32.255707	-9.485292	921.201172	662317.250000
-32.255707	-9.485292	920.039062	660723.000000
-32.255707	-9.485292	918.876953	663778.187500
-32.255707	-9.485292	917.714844	664825.562500
-32.255707	-9.485292	916.551758	665461.875000
-32.255707	-9.485292	915.389648	664934.312500
-32.255707	-9.485292	914.226562	665517.312500
-32.255707	-9.485292	913.062500	662974.875000
-32.255707	-9.485292	911.899414	663198.625000
-32.255707	-9.485292	910.735352	661714.500000
-32.255707	-9.485292	909.570312	659235.875000
-32.255707	-9.485292	908.406250	659614.312500
-32.255707	-9.485292	907.241211	658172.125000
-32.255707	-9.485292	906.076172	657547.625000
-32.255707	-9.485292	904.911133	658337.687500
-32.255707	-9.485292	903.745117	657272.312500
-32.255707	-9.485292	902.579102	658300.375000
-32.255707	-9.485292	901.413086	655710.250000
-32.255707	-9.485292	900.247070	657678.687500
-32.255707	-9.485292	899.080078	655806.687500
-32.255707	-9.485292	897.913086	656429.250000
-32.255707	-9.485292	896.746094	655477.187500
-32.255707	-9.485292	895.578125	654944.750000
-32.255707	-9.485292	894.410156	655147.687500
-32.255707	-9.485292	893.242188	656119.187500
-32.255707	-9.485292	892.073242	655949.000000
-32.255707	-9.485292	890.905273	655086.312500
-32.255707	-9.485292	889.736328	655297.250000
-32.255707	-9.485292	888.566406	655808.875000
-32.255707	-9.485292	887.397461	655201.187500
-32.255707	-9.485292	886.227539	655731.437500
-32.255707	-9.485292	885.057617	655252.187500
-32.255707	-9.485292	883.886719	653190.375000
-32.255707	-9.485292	882.716797	652770.687500
-32.255707	-9.485292	881.545898	654233.625000
-32.255707	-9.485292	880.374023	653297.062500
-32.255707	-9.485292	879.203125	654204.687500
-32.255707	-9.485292	878.031250	652521.125000
-32.255707	-9.485292	876.859375	653367.500000
-32.255707	-9.485292	875.686523	653453.812500
-32.255707	-9.485292	874.514648	653248.437500
-32.255707	-9.485292	873.341797	654406.437500
-32.255707	-9.485292	872.167969	651395.062500
-32.255707	-9.485292	870.995117	652053.875000
-32.255707	-9.485292	869.821289	651949.375000
-32.255707	-9.485292	868.647461	652303.812500
-32.255707	-9.485292	867.472656	652218.125000
-32.255707	-9.485292	866.298828	652827.750000
-32.255707	-9.485292	865.124023	651565.000000
-32.255707	-9.485292	863.948242	651454.250000
-32.255707	-9.485292	862.773438	650414.187500
-32.255707	-9.485292	861.597656	652163.875000
-32.255707	-9.485292	860.421875	651973.375000
-32.255707	-9.485292	859.245117	650912.875000
-32.255707	-9.485292	858.069336	649825.687500
-32.255707	-9.485292	856.892578	650697.687500
-32.255707	-9.485292	855.715820	653345.812500
-32.255707	-9.485292	854.538086	653731.687500
-32.255707	-9.485292	853.360352	649895.500000
-32.255707	-9.485292	852.182617	652426.875000
-32.255707	-9.485292	851.004883	652177.812500
-32.255707	-9.485292	849.826172	651653.312500
-32.255707	-9.485292	848.647461	652894.625000
-32.255707	-9.485292	847.468750	654800.875000
-32.255707	-9.485292	846.289062	654499.187500
-32.255707	-9.485292	845.109375	653136.000000
-32.255707	-9.485292	843.929688	654225.437500
-32.255707	-9.485292	842.750000	652289.687500
-32.255707	-9.485292	841.569336	653597.500000
-32.255707	-9.485292	840.388672	655754.812500
-32.255707	-9.485292	839.207031	653605.312500
-32.255707	-9.485292	838.026367	654809.750000
-32.255707	-9.485292	836.844727	655938.625000
-32.255707	-9.485292	835.663086	653973.625000
-32.255707	-9.485292	834.480469	656766.937500
-32.255707	-9.485292	833.298828	655493.375000
-32.255707	-9.485292	832.116211	657040.937500
-32.255707	-9.485292	830.932617	656670.375000
-32.255707	-9.485292	829.750000	656100.312500
-32.255707	-9.485292	828.566406	656436.812500
-32.255707	-9.485292	827.382812	657999.125000
-32.255707	-9.485292	826.198242	659076.562500
-32.255707	-9.485292	825.013672	659378.687500
-32.255707	-9.485292	823.829102	657350.687500
-32.255707	-9.485292	822.644531	659280.625000
-32.255707	-9.485292	821.458984	659879.187500
-32.255707	-9.485292	820.273438	658317.187500
-32.255707	-9.485292	819.087891	661598.062500
-32.255707	-9.485292	817.902344	661218.562500
-32.255707	-9.485292	816.715820	661046.562500
-32.255707	-9.485292	815.529297	660534.562500
-32.255707	-9.485292	814.342773	661417.687500
-32.255707	-9.485292	813.155273	660539.000000
-32.255707	-9.485292	811.967773	662544.500000
-32.255707	-9.485292	810.780273	661728.000000
-32.255707	-9.485292	809.591797	661031.937500
-32.255707	-9.485292	808.403320	662650.625000
-32.255707	-9.485292	807.214844	662281.625000
-32.255707	-9.485292	806.026367	661538.187500
-32.255707	-9.485292	804.836914	663565.125000
-32.255707	-9.485292	803.647461	662610.687500
-32.255707	-9.485292	802.458008	664158.625000
-32.255707	-9.485292	801.267578	663452.500000
-32.255707	-9.485292	800.078125	662492.437500
-32.255707	-9.485292	798.887695	664326.375000
-32.255707	-9.485292	797.696289	662738.500000
-32.255707	-9.485292	796.504883	664453.687500
-32.255707	-9.485292	795.313477	663655.187500
-32.255707	-9.485292	794.122070	666159.812500
-32.255707	-9.485292	792.929688	664746.187500
-32.255707	-9.485292	791.738281	664245.187500
-32.255707	-9.485292	790.544922	665328.562500
-32.255707	-9.485292	789.352539	667238.437500
-32.255707	-9.485292	788.159180	663629.812500
-32.255707	-9.485292	786.965820	664716.625000
-32.255707	-9.485292	785.772461	664869.250000
-32.255707	-9.485292	784.578125	664403.625000
-32.255707	-9.485292	783.383789	664076.250000
-32.255707	-9.485292	782.189453	665991.625000
-32.255707	-9.485292	780.995117	667731.000000
-32.255707	-9.485292	779.799805	666369.625000
-32.255707	-9.485292	778.604492	667151.125000
-32.255707	-9.485292	777.408203	668325.125000
-32.255707	-9.485292	776.212891	667688.437500
-32.255707	-9.485292	775.016602	667379.000000
-32.255707	-9.485292	773.819336	668800.750000
-32.255707	-9.485292	772.623047	666793.312500
-32.255707	-9.485292	771.425781	668590.500000
-32.255707	-9.485292	770.228516	669867.062500
-32.255707	-9.485292	769.031250	668959.500000
-32.255707	-9.485292	767.833008	672360.625000
-32.255707	-9.485292	766.634766	671530.875000
-32.255707	-9.485292	765.435547	670966.250000
-32.255707	-9.485292	764.237305	671056.437500
-32.255707	-9.485292	763.038086	672894.437500
-32.255707	-9.485292	761.838867	672366.687500
-32.255707	-9.485292	760.638672	672753.687500
-32.255707	-9.485292	759.439453	675840.375000
-32.255707	-9.485292	758.238281	680124.500000
-32.255707	-9.485292	757.038086	681664.937500
-32.255707	-9.485292	755.836914	683978.937500
-32.255707	-9.485292	754.636719	683227.812500
-32.255707	-9.485292	753.434570	682167.875000
-32.255707	-9.485292	752.233398	682926.187500
-32.255707	-9.485292	751.031250	685116.750000
-32.255707	-9.485292	749.829102	683883.062500
-32.255707	-9.485292	748.625977	684709.875000
-32.255707	-9.485292	747.423828	688673.500000
-32.255707	-9.485292	746.220703	693945.875000
-32.255707	-9.485292	745.016602	692414.625000
-32.255707	-9.485292	743.813477	690943.375000
-32.255707	-9.485292	742.609375	690341.125000
-32.255707	-9.485292	741.405273	687347.125000
-32.255707	-9.485292	740.200195	683331.312500
-32.255707	-9.485292	738.996094	679321.500000
-32.255707	-9.485292	737.790039	678399.875000
-32.255707	-9.485292	736.584961	677211.375000
-32.255707	-9.485292	735.378906	675992.812500
-32.255707	-9.485292	734.173828	676488.187500
-32.255707	-9.485292	732.966797	676340.875000
-32.255707	-9.485292	731.760742	675698.187500
-32.255707	-9.485292	730.553711	674631.812500
-32.255707	-9.485292	729.346680	675693.375000
-32.255707	-9.485292	728.138672	675038.937500
-32.255707	-9.485292	726.931641	674244.250000
-32.255707	-9.485292	725.723633	674822.437500
-32.255707	-9.485292	724.514648	673602.562500
-32.255707	-9.485292	723.306641	674650.750000
-32.255707	-9.485292	722.097656	675016.687500
-32.255707	-9.485292	720.888672	673461.812500
-32.255707	-9.485292	719.678711	675101.062500
-32.255707	-9.485292	718.468750	674596.125000
-32.255707	-9.485292	717.258789	673573.062500
-32.255707	-9.485292	716.048828	674599.125000
-32.255707	-9.485292	714.837891	674375.000000
-32.255707	-9.485292	713.626953	674205.812500
-32.255707	-9.485292	712.416016	675062.312500
